,activity,acc_x_mean,acc_x_std,acc_x_min,acc_x_max,acc_x_median,acc_x_q25,acc_x_q75,acc_x_iqr,acc_x_skew,acc_x_energy,acc_x_entropy,acc_x_zecr,acc_x_peaks,acc_x_fft_energy,acc_x_dom_freq,acc_x_spectral_mean,acc_y_mean,acc_y_std,acc_y_min,acc_y_max,acc_y_median,acc_y_q25,acc_y_q75,acc_y_iqr,acc_y_skew,acc_y_energy,acc_y_entropy,acc_y_zecr,acc_y_peaks,acc_y_fft_energy,acc_y_dom_freq,acc_y_spectral_mean,acc_z_mean,acc_z_std,acc_z_min,acc_z_max,acc_z_median,acc_z_q25,acc_z_q75,acc_z_iqr,acc_z_skew,acc_z_energy,acc_z_entropy,acc_z_zecr,acc_z_peaks,acc_z_fft_energy,acc_z_dom_freq,acc_z_spectral_mean,gyro_x_mean,gyro_x_std,gyro_x_min,gyro_x_max,gyro_x_median,gyro_x_q25,gyro_x_q75,gyro_x_iqr,gyro_x_skew,gyro_x_energy,gyro_x_entropy,gyro_x_zecr,gyro_x_peaks,gyro_x_fft_energy,gyro_x_dom_freq,gyro_x_spectral_mean,gyro_y_mean,gyro_y_std,gyro_y_min,gyro_y_max,gyro_y_median,gyro_y_q25,gyro_y_q75,gyro_y_iqr,gyro_y_skew,gyro_y_energy,gyro_y_entropy,gyro_y_zecr,gyro_y_peaks,gyro_y_fft_energy,gyro_y_dom_freq,gyro_y_spectral_mean,gyro_z_mean,gyro_z_std,gyro_z_min,gyro_z_max,gyro_z_median,gyro_z_q25,gyro_z_q75,gyro_z_iqr,gyro_z_skew,gyro_z_energy,gyro_z_entropy,gyro_z_zecr,gyro_z_peaks,gyro_z_fft_energy,gyro_z_dom_freq,gyro_z_spectral_mean
0,jumpingjacks,1.6967541041072818,2.400502146861932,-5.069313,7.9960475,1.6400647,0.82991663,2.6338658,1.80394917,-0.04461431086203639,8644.264021383453,2.416924270485081,0.024975024975024976,68,5768821.80158192,0,30.80210487086582,-0.45141551038652133,2.3021425190895126,-5.6756733,6.0550604,-0.77097684,-1.4465274,0.3492459049999999,1.7957733049999998,0.6169469620297373,5503.839917180348,2.616378776670463,0.03496503496503497,62,2856763.7379085254,12,22.58772381032364,0.810683162703076,1.083076587145885,-2.2079859,3.95568,0.9304282587935624,0.1951870928717312,1.4255208243354225,1.2303337314636913,-0.20090230393684694,1830.91929110413,3.3948369018419813,0.061938061938061936,88,1245636.2361366332,0,18.86324558878653,0.02354726097688233,3.3245152134780245,-8.579602,7.7983055,0.53878313,-2.6487130807844204,2.4301646750884056,5.078877755872826,-0.2744318476736043,11052.956432619847,2.261335318538284,0.06293706293706294,62,5532282.486026727,13,41.27164115858194,0.27641531412347586,2.7274941587538777,-8.085412,9.948551,0.042760566,-1.8338175,2.15024562,3.98406312,0.28121496530807844,7515.706217344386,1.9201934473769064,0.06893106893106893,73,3799890.1183504504,12,38.98422450165521,0.055602210910781436,6.587910060761804,-9.690562666666668,13.51234,-0.6786759992639999,-6.850261266922472,6.648979155660852,13.499240422583323,0.13209050381642426,43403.65366615063,1.8349173225702176,0.024975024975024976,50,21725077.555989135,12,53.3776232331284
1,jumpingjacks,1.2192969935992375,1.8589008215087177,-3.414605,7.960781300000001,1.2996049,0.1594821342593355,1.99992745142528,1.8404453171659445,0.362895858472198,4943.684107964525,2.513573826526551,0.026973026973026972,77,3219143.903837493,0,24.212185656029142,-0.06946426319157245,2.2184762301862766,-4.6858993,6.2301712,-0.31519994,-1.1712309322295469,0.6208012681338959,1.7920322003634428,0.6610347535303317,4926.466893046123,2.7172455392985344,0.03296703296703297,60,2468114.149596461,12,20.660171469309486,0.5742996745601092,0.9724657633310325,-3.0757314,4.8203745,0.6222086874999999,0.09274176,1.06152695,0.96878519,0.15097198825272595,1275.8395971670552,2.4962056458684283,0.07192807192807193,84,803797.7615082926,0,17.693913192145434,-0.04318112543287441,3.56795129768719,-7.839234,8.784243,0.7208183383443472,-3.1007519,2.9144940528723327,6.015245952872332,-0.20786488853473473,12732.142936870947,2.2443222294721825,0.05094905094905095,71,6373371.71024263,12,42.716857642890055,-0.055601168850268355,2.2565574066158303,-6.77816075,8.3407545,-0.1338123007520086,-1.475565975439579,1.029102367811276,2.504668343250855,0.4219617482935878,5095.145910820256,2.089365563465847,0.06693306693306693,74,2551669.3663900183,12,30.44131188853331,-0.14986447601761155,5.920361686518822,-8.852659,13.043195,-1.006095,-6.2015038,5.607642690311315,11.809146490311315,0.21022738695511511,35073.1643197332,1.9225574648816666,0.023976023976023976,49,17565370.89320334,12,44.58484772425752
2,jumpingjacks,1.6411785594862376,2.19074999569661,-3.0631626,7.9962916,1.541617904833296,0.39100742041891734,2.7541846463053665,2.3631772258864494,0.3996878813525206,7480.560369610611,2.794226000351149,0.03203203203203203,78,5080581.316348576,0,24.174084795102708,-0.5514427701453584,1.9566004922114204,-4.46783435,5.3480263,-0.81149036,-1.8162243735955474,0.18148441232185245,1.9977087859173999,0.7646280484732952,4124.41395476657,2.9524447282381185,0.031031031031031032,69,2211885.397694513,12,16.91342633652654,0.6432436858543004,1.3879549364763097,-4.08686055,4.928736150000001,0.6301821429980886,-0.086087116602095,1.51919535,1.605282466602095,-0.1858170188499732,2335.914744829614,2.774232005406925,0.06406406406406406,91,1373257.0791799335,0,22.124704777268224,-0.32346097302023696,3.684264012195526,-8.561888,10.709079,0.20341812,-2.833193,2.2507348253940798,5.083927825394079,-0.09496955377691878,13651.176083002088,1.9927930202500617,0.04804804804804805,70,6870971.379305577,12,41.284554672782455,0.2545439007988752,2.4075707522733834,-5.83865,8.932682,0.089186326,-1.5107223932919753,1.941780200875,3.452502594166975,0.29360653696394134,5849.531938184295,2.2345680176396447,0.055055055055055056,73,2954172.7416388737,12,30.07880718061145,-0.36863284178155165,6.453962544586266,-10.66082,11.657752,-1.4795157,-6.124685634704253,6.023784475196548,12.148470109900801,0.18312478222853137,41706.07954373649,1.9698267287665168,0.023023023023023025,47,20899995.995889403,12,42.42537771595845
3,jumpingjacks,1.7654837225256073,2.3002586756146206,-3.8224244,7.9962916,1.7381566238736048,0.47406766930188504,2.8564538683568155,2.38238619905493,0.22888898425357534,8402.831559268463,2.643760945650281,0.029,71,5759885.476511844,0,26.509280203157694,-0.776923900593118,2.0751861709173363,-5.8717737,6.121444,-1.17952844071776,-1.8199622759939926,-0.2115650585847168,1.6083972174092758,1.0255249205112216,4905.7019936354145,2.402771416762775,0.027,59,2754670.103323182,12,21.1543567809551,0.8213475536788141,1.3811039187274883,-3.46073175,5.742301,0.8173171800000001,-0.03349685775,1.3834621029508187,1.4169589607008186,0.4671967676428587,2580.1523902242725,2.666425513519286,0.054,87,1627384.9844081122,0,21.03307238233339,-0.13296179146149073,3.7384311989583603,-8.458651,8.1440555,0.36713,-3.604012945485411,2.922429856396346,6.526442801881757,-0.22981543426995302,13979.570799504547,2.3055883201201928,0.049,69,6998725.722673537,12,41.11417831774462,0.36098083479289794,1.9977766367707632,-6.3212337,8.301048,0.314577799194968,-0.7488232663610702,1.4927256,2.2415488663610703,0.07963817852836459,4117.427542024452,2.0420033177141947,0.087,81,2123874.6311106426,12,32.16300403032676,-0.39645927336011333,6.940823240633464,-10.961366,12.44027,-1.2410663945463014,-7.152239475,6.689924527644,13.842164002644001,0.0924398664561981,48284.03218589313,1.8531681383016672,0.023,42,24220616.72759574,12,48.534854842588864
4,jumpingjacks,1.958102421772764,2.479354606614299,-5.08554295,7.9962916,1.898932088240021,0.54412565,3.3125410646668954,2.7684154146668956,0.22691121217129787,9975.21716022657,2.4871978291459382,0.027,66,6904706.78182475,0,29.36673537161592,-1.0200103895016919,1.998468818076615,-5.7331486,5.462489,-1.3159283038632785,-2.143676807423308,-0.3089088612768033,1.8347679461465045,1.0100550955769476,5030.304933899112,2.5503863110293707,0.029,60,3035365.217247352,0,22.068024677321812,0.7814564851123705,1.498422708850541,-5.3204482,6.755261,0.7656513166825628,-0.006044489402828425,1.4722937648790355,1.478338254281864,0.3447523922886768,2853.6995819087747,2.1575284798744603,0.06,82,1732188.0004548025,0,23.269927902211162,-0.32489435642848113,3.6992643628967627,-10.2820835,8.594874,0.08529206499999994,-3.124161469534592,2.296624355,5.420785824534592,-0.2672914163692672,13776.428612610469,2.063514903972869,0.061,67,6940994.521172774,12,47.48467500596595,0.45212742881067963,2.1230161334598963,-7.2552466,8.031656,0.26297788149527435,-0.582841721284224,1.5512350657734755,2.1340767870576993,0.10895346841245704,4707.109517311033,1.9991859284890596,0.086,71,2455837.672073244,12,34.43315087118904,-0.11607281130105766,7.488381606213988,-11.457389,15.1616755,-0.792440575001472,-7.507535100776317,7.178469028760902,14.686004129537219,0.10704520483437373,56033.25611872703,1.701021931661542,0.023,48,28023385.375708945,12,51.91558383302688
5,lifting,0.23128512552471192,0.4072853189155778,-0.6856381433333333,1.1646413,0.1860755559077639,-0.08180699125695709,0.6222493670269795,0.7040563582839366,0.08815905124324884,217.45326583979636,3.0378706073121307,0.015120967741935484,41,134177.4142594912,0,4.282994976492101,0.06294469699984602,0.12812377599431107,-0.30336314,0.381583495,0.0712010955454363,-0.0206865600545819,0.14584661814423075,0.16653317819881264,-0.037883891839637356,20.19829925862424,-13.571578265207313,0.05141129032258065,51,11968.16729912261,0,1.880714859905681,0.7512355520905122,0.7009730815804605,-0.8542004,1.9339097,0.8257321511650133,0.31465620206933115,1.308329301399205,0.9936730993298739,-0.4455413074982668,1046.7810076374417,4.787139541804102,0.018145161290322582,38,796884.0342714433,0,7.5643185327068725,-0.04271933496357866,0.6548424137327996,-1.7831156333333336,1.608957993,-0.05928484536295835,-0.3718762074386185,0.3701046982079019,0.7419809056465204,-0.10554527192274962,426.7695615890812,4.056222714063626,0.056451612903225805,43,212575.63481560347,8,9.899873595091965,1.5705735530645992,2.415484913196699,-4.303938321428571,5.906019499999999,2.5155608821678848,-0.14431348947077915,3.29529103916561,3.439604528636389,-0.6949327747317833,8229.023934889208,2.9682722358625937,0.016129032258064516,38,5295295.814762805,0,23.663889080249625,-0.1307766886476049,0.49953184723516636,-1.4978416,0.88514376,-0.08830494067216335,-0.42988377221768304,0.22878571510641554,0.6586694873240986,-0.37558401232759403,264.2519997598415,3.9759184255223152,0.03225806451612903,40,139484.01936314994,2,5.465897267964456
6,lifting,0.25690806316592024,0.3866061767426569,-0.737434226875,0.90899123,0.219651525,-0.07988063217658889,0.6485007463061528,0.7283813784827418,-0.119903547715799,215.1011583905281,2.7477236355671217,0.015015015015015015,21,140377.93632385784,0,4.367249942437372,0.061020140588752034,0.08008237024741799,-0.1308553633333333,0.34412071,0.0526294107577231,0.00487285873712105,0.1042011774283618,0.09932831869124074,0.7917118972930272,10.12009375230924,-34.698270670057056,0.03803803803803804,43,6912.994012185304,0,1.1674334997446927,0.5643204710641707,0.6325414370490317,-0.847976925,1.97515525,0.7464490766666666,0.069678345,1.0299664136660367,0.9602880686660367,-0.44317021972347115,717.4475887129115,4.264493782677038,0.01701701701701702,27,517275.569227878,0,7.957137491857005,-0.08697999527654365,0.49309598174251273,-1.9553796,1.13083374,-0.012217305,-0.4410600580294046,0.28649562902707615,0.7275556870564808,-0.7576544843047103,250.21531397492046,3.0668678233905875,0.044044044044044044,37,128757.74738280804,9,6.758028852757099,1.286982321108919,2.899062182062491,-4.5747088300000005,4.583322,2.5612600357471176,-1.5398307238685816,3.6257514882166637,5.165582212085245,-0.6750397300849136,10042.419583746057,3.119359184015714,0.01701701701701702,26,5842694.8341715075,0,30.157859774521746,-0.1292037195098908,0.3870992632922308,-1.1630874,0.72494435,-0.0695255168518518,-0.3929492519833333,0.16204898996046213,0.5549982419437954,-0.44455522092047633,166.22305549616044,2.952601505351832,0.02902902902902903,35,91358.53153359279,0,4.604816771100788
7,lifting,0.08250577936145798,0.49071112029399644,-0.8645278421052631,1.01051908,0.01388075656,-0.34039069232260966,0.47966402,0.8200547123226096,0.14340096067639974,247.3638098046505,3.8837704937737514,0.019,42,127085.77054136345,8,3.9032248138332366,0.07489874602967486,0.10283200995174684,-0.224044555,0.4165708571428571,0.08828262660416665,0.01830429375,0.13772873974222224,0.11942444599222224,-0.16449766616469447,16.173670005263183,-20.169290395596327,0.036,57,10891.760579225062,0,1.5770370313580528,0.7014324847433957,0.620125899345108,-0.9515792,1.90974805,0.902493239129984,0.3076040780824615,1.1880589597729383,0.8804548816904768,-0.7829662294722728,876.1791055608344,3.834046118456426,0.016,46,684093.3713457698,0,6.8617165176416,0.03261563733153874,0.5740555921709165,-2.03283736,1.693572984166667,0.07096218072916666,-0.2955408641445723,0.38768563599038136,0.6832265001349537,-0.47471139181970984,330.2740628783413,3.2822966173317565,0.056,47,165673.07793645616,7,9.047760299343427,0.7573264257579461,2.9698862122794956,-4.4306054,5.4000487,2.097028062237343,-2.391149684208674,3.2825721203037905,5.673721804512464,-0.3952691354646837,9384.947204925269,2.9398460775836615,0.018,33,4979245.709843964,8,27.249759898309176,-0.03279337644988632,0.4626276286814575,-1.5864171,1.1459832,-0.09391235483915385,-0.33947306670964916,0.32568377226133094,0.6651568389709801,0.030671559093272335,214.88570403559308,3.131120661773055,0.03,43,107980.62534812046,8,5.195967340148281
8,lifting,0.2223901349185463,0.4258191373470469,-0.6765267,0.9604629,0.1965881136363636,-0.1112594590030393,0.6775515720288989,0.7888110310319383,-0.001914245173563153,230.3672085925014,3.029598694196242,0.014014014014014014,23,139747.67410307605,0,4.31493770896457,0.0670792423549425,0.08639592406621188,-0.1914151560434782,0.328745115,0.0767631980256572,0.011869806025751401,0.11539660542879296,0.10352679940304156,-0.08845407247900032,11.94445231402234,-29.06063709334126,0.03303303303303303,39,8211.568933368182,0,1.390309252250337,0.6428661569870812,0.560848732161956,-0.6973691719999999,1.7960783,0.8044459572542836,0.113366602853606,1.04646453169799,0.9330979288443839,-0.32815675665243116,726.7858166704773,3.7691137982340517,0.018018018018018018,35,569254.8930692212,0,7.389982161500909,-0.031098607859356215,0.4800648312987758,-2.1991148,1.627345,-0.0445175275715576,-0.2786567557301186,0.26478598111630347,0.5434427368464221,-0.25135670621763107,230.96747405280146,2.46549357229326,0.05005005005005005,36,115850.84835492025,2,7.900174133314051,1.4320307200928746,2.4433825450796705,-4.234518,4.575991566666667,2.40619921431744,-0.31219779180298546,3.586209415301062,3.8984072071040474,-0.6665616235120905,8006.839296383237,3.2137381549484356,0.018018018018018018,27,5022722.5335609885,0,26.894407372188315,-0.02811702415180511,0.3722835345561311,-0.8193739233333334,0.91477068,-0.0289003024141806,-0.30608081784890573,0.23821127296892203,0.5442920908178277,0.09791175549818092,139.10761652150887,3.256229753448852,0.03803803803803804,31,69878.74780430665,6,4.368304988109759
9,lifting,0.321660979460711,0.3804606395179411,-0.5775919875,0.9318105466666666,0.3464643812590956,0.0286205364005134,0.6807236407298272,0.6521031043293137,-0.17917688265761592,247.57490146394224,2.8845567940108663,0.013026052104208416,13,175066.10917756,0,4.369664030288819,0.05353770359683688,0.04745508686237463,-0.10409041637,0.16046763,0.0524204001458125,0.02021232181617365,0.08228455349582818,0.06207223167965453,-0.11477017381544621,5.105782448318088,-91.04623098670959,0.012024048096192385,30,3975.282581499,0,0.7414152770717749,0.5926822168585074,0.5193043024130022,-0.3701651099999999,1.7462784299999998,0.6534746153144543,0.2015483793696392,1.0078527832463813,0.8063044038767421,-0.2703321627972083,619.437593389095,4.201742714499008,0.012024048096192385,16,484034.01253951556,0,6.170943082899209,0.06861251316578793,0.43513682735776843,-1.018835955714286,1.110553,0.12767367174848354,-0.19675787746665965,0.35509972529240713,0.5518576027590668,0.07451719847776428,193.47428795641497,2.842990707329773,0.03907815631262525,28,98889.70507357523,5,5.652819538331673,-0.1443182535942146,2.5824840185496782,-3.7549886666666654,3.8784707285714286,-0.1174935825943728,-2.987172706629976,2.4987265911981087,5.485899297828085,0.025301719250080693,6670.002137750145,3.4672112142089535,0.013026052104208416,14,3338704.580811805,5,24.597618358795273,-0.020166360423426538,0.22527926870578627,-0.62124997,0.4605924,0.03916108915073855,-0.08368854240447407,0.14059583587317145,0.22428437827764552,-1.2458898639862874,51.0043653904301,-4.6289799325273835,0.03006012024048096,26,25653.71026386408,3,2.5479921119162765
10,rowing,0.7195738840925343,0.3989894255269757,-0.175965278,1.4105695666666669,0.6228339695785446,0.34425075870262306,1.1065035470275957,0.7622527883249726,0.03779147108484934,676.1429646523295,1.0376146587771773,0.004004004004004004,35,596109.170496466,0,4.943805944465408,0.03979472289206324,0.1163227503192201,-0.30946457,0.36022848,0.0415000438502766,-0.0459679427709472,0.108535750657603,0.1545036934285502,0.11518647416490517,15.085956627430011,-16.094396977773734,0.044044044044044044,42,8325.66249226927,0,1.8291807751442484,0.41744536658275416,0.5666622898256427,-0.66237134,1.7206036,0.260775151575,-0.10149958211164439,0.9259968995393008,1.027496481650945,0.4643108147271524,494.5503118563485,3.351705253390434,0.02002002002002002,38,333984.02430918673,0,5.847224838619511,0.15823386702794817,0.4971045350104356,-1.0305296,1.89673664,0.1643746777309882,-0.0803467512735833,0.4744668223103412,0.5548135735839245,-0.0014926070389005939,271.63161160842935,3.073127458061798,0.04704704704704705,30,148173.94289802332,0,7.108265630628805,-0.3852452062034183,1.0249744679946629,-2.3854287,5.258328,-0.353462092930432,-1.092420270943241,0.0963652383882862,1.1887855093315272,1.2062779000752033,1196.7369697546715,2.5133553772641157,0.023023023023023025,32,671828.7111818473,5,13.49073227943041,-0.021768031564964214,0.37311729344230354,-1.018801042,1.03511115,0.057815797552395,-0.3615927299140683,0.19832301184849685,0.5599157417625652,-0.037839997171563305,139.41145498739368,2.40528360684713,0.03903903903903904,33,69872.47175503518,5,5.210396802664293
11,rowing,0.6714777724030678,0.3500233473275496,0.047347106,1.56108778,0.5385304647703582,0.4056945820424165,1.0520935651334602,0.6463989830910437,0.6468198221226285,572.7028274195884,0.714900957316086,0.0,49,511055.6047541456,0,4.650095607080546,0.06767788096692746,0.11610352211584724,-0.252965335,0.55059314,0.0702395816076492,-0.0140381768463413,0.12629636940919775,0.14033454625553904,0.7030634072735057,18.028783068611045,-13.644521339643633,0.06806806806806807,61,11290.946923433634,0,2.0626520508788375,0.5567926466901769,0.5688187784597557,-0.9493827,2.017133,0.47578961,0.0985816297783012,0.9976043024709208,0.8990226726926196,0.14488913583709961,632.6157264798356,3.8035382701260425,0.028028028028028028,53,470690.71803842153,0,6.447520996701823,-0.11581273994322676,0.6087171320324579,-3.03844365,2.8069258,-0.1063928236239478,-0.5775714571804133,0.30480478577777775,0.882376242958191,0.019102587246124566,383.19465187858555,2.398063606669214,0.056056056056056056,41,198098.61809549437,11,9.626542482183407,-0.1018718032689076,1.1110049778728086,-2.8008173,3.539614957142857,-0.1310829077295938,-0.8727562784992675,0.5766567535820639,1.4494130320813314,0.2029151996149726,1242.2308831734013,3.4308752347913796,0.05805805805805806,59,625672.8856203745,6,15.507256952436338,0.017889226803970645,0.42068308402413757,-1.1578950666666668,1.4196508,0.0249900499445295,-0.24226528591377774,0.2954142639218807,0.5376795498356585,0.09902853504400332,176.94001308089972,2.887626992970054,0.056056056056056056,40,88541.22888730794,12,5.911479055459062
12,rowing,0.7125858021795989,0.3477471684494918,0.000244057,1.6717921,0.6038727038779903,0.40688599630263345,1.04759283720764,0.6407068409050065,0.4222518559563297,628.585690539417,1.4031079936248816,0.0,77,568182.2737820726,0,4.757085724635608,0.0870595599868084,0.16638766470181243,-0.655659795,0.65077865,0.08943477612,-0.019677114875,0.19019682887872003,0.20987394375372004,-0.10801116871988628,35.23653709505452,-3.9610247872534097,0.071,79,21408.071078465106,0,2.7826350729543545,0.483323389807973,0.5387103425213411,-0.72533816,1.61151,0.39771347326944195,0.0895568073625,0.9954332487499999,0.9058764413874999,0.10463044682877172,523.5201234417909,4.2489980868065,0.028,78,378560.85149888333,0,6.007841711235334,0.018099243256629087,0.5722362002115488,-2.5619688,1.9895881,-0.00565255992834395,-0.3241129940161434,0.35793649624999996,0.6820494902661434,-0.061096705804945015,327.4543971701817,2.6843812942779284,0.067,64,163891.50182469568,17,8.381844578110252,-0.0542348495927268,1.1596156449059187,-2.4324653,3.477656,-0.18228946419944192,-0.7907825996310275,0.5058968210616587,1.2966794206926862,0.5811747710677138,1346.3051543770048,3.6890579333980402,0.071,72,674647.9737380669,6,15.913497050476918,0.019751987484007888,0.5079660875690294,-1.3762794,2.7635543,0.03229840467096075,-0.3283076982819718,0.34574973507142853,0.6740574333534004,0.41061522376243215,258.161657583635,2.5367372948498397,0.052,56,129276.90338844582,23,7.107986119021411
13,rowing,0.7411376635902138,0.3851627300738926,0.0405135045,1.6185876,0.6061245550050489,0.4221376933333333,1.131510425,0.7093727316666668,0.4205641390955262,695.3941086062074,1.793382511941088,0.0,39,619651.098009663,0,4.6323880682971526,0.039549435252621425,0.1231984058240305,-0.46541715,0.4444282499999999,0.040269446,-0.0238199892,0.109656781665961,0.133476770865961,-0.15172405629082994,16.676601164107073,-12.185528147407414,0.04613841524573721,50,9090.679159931851,0,1.899816838368319,0.4815996689541683,0.5098541240298687,-0.5017206675,1.5491127166666665,0.398423445,0.089537312038961,0.9133066627618296,0.8237693507228686,0.22272233040061443,490.15384929245783,4.514655210555335,0.02106318956870612,42,359616.0434393473,0,5.56323769365815,-0.008427034282950071,0.5846967745932745,-1.954158,1.6872098,-0.016493361,-0.3008497149102385,0.3441517774125869,0.6450014923228253,-0.5071215456723909,340.5736388089849,3.2825146132289587,0.044132397191574725,42,169811.2536745287,5,8.403250606545635,-0.06524752981298666,1.1110206756165055,-2.493552,4.14191062,-0.2106885469887176,-0.63713244,0.396311269921942,1.033443709921942,0.6199906010253642,1233.673942307023,3.1323742193597837,0.04714142427281846,44,617102.3277505399,6,14.68154526501931,-0.03237112431415234,0.3818356339812965,-1.32160695,1.1502593,-0.017715095,-0.2614889497930294,0.2118484121636151,0.4733373619566445,-0.031112263155181046,146.26000359268124,2.6287006494390828,0.04312938816449348,37,73431.41768206828,3,5.631000800638186
14,rowing,0.6660104664072483,0.3643172907326876,-0.059671995,1.5168158,0.6084821251117287,0.37180140376623366,0.9403631241823375,0.5685617204161038,0.4846260214000093,576.1643026024792,2.734596714717005,0.002,42,509867.1288040123,0,4.611446252805311,0.052418864089354256,0.08875045252943943,-0.28042176,0.31556603,0.059979464507181404,-0.00488646840639025,0.10914741499707642,0.11403388340346667,-0.3135523976757808,10.616503493774296,-24.390194602925146,0.059,52,6682.322246740132,0,1.6117440059619539,0.5531262869626177,0.4555249933155886,-0.5973301,1.7585138333333334,0.48092949470170443,0.18760305401134397,0.9415669560538511,0.7539639020425071,0.18902629889592923,513.244205844684,3.5553141036631652,0.02,44,409596.46601366706,0,5.860103062715571,-0.006064897227760861,0.5381013241759932,-2.5424211000000003,2.4055874,0.0025827024698759,-0.24277192166829942,0.3201753741490101,0.5629472958173095,-0.2214767339648069,289.3002650232607,2.183949448993732,0.055,50,144672.77457883809,14,7.940151133509409,-0.07060540972063198,1.015036048462513,-2.132705071428572,3.7030652,-0.17157666276032002,-0.7444921190246601,0.3974440138760869,1.141936132900747,0.8074855684121083,1034.2530053805326,3.3487260675175707,0.049,51,519619.8844679089,6,14.215465404901543,-0.042536107395323854,0.2848833254696368,-1.0079277,0.9425651,-0.0608376319421471,-0.200811109172631,0.1125474575662222,0.3133585667388532,0.1683463731676419,82.88667105385488,1.2263422972857596,0.048,46,42349.23968256189,14,4.665212801398474
15,running,1.0965243490971657,1.3145551087182181,-2.0737545,5.6391868,0.95670444,0.1902827296374171,1.9165816,1.7262988703625828,0.43176403730463825,2931.6231476682915,3.1480959890667277,0.025974025974025976,39,2069663.1763204476,0,16.974459441434213,0.1750804493090722,0.7630466032265544,-2.1203694,1.4128474,0.3155932486028108,-0.43930307,0.85175985,1.29106292,-0.5359341719495369,612.9239355895795,3.91958136446609,0.027972027972027972,50,322125.68011803,14,7.51135335168139,-0.09672631414391651,0.4551905802546328,-1.52535785,1.6188318,-0.132139566,-0.3734078214182876,0.129106276,0.5025140974182876,0.5708811494825168,216.5638001802648,2.7365292227018307,0.09090909090909091,72,113077.53257199413,27,7.288787406077023,0.1547588499765374,1.0140281092152144,-2.905275,3.33746215,0.25030088927936,-0.4631922558715944,0.7678576075,1.2310498633715943,-0.05929382433573234,1052.2272582262892,3.272982375759375,0.07592407592407592,67,538638.8558420847,27,15.15181092527759,-0.22956122706872673,0.9661475453005275,-5.9760947,1.6853772,-0.163938488194816,-0.5302288723698673,0.2899572673419207,0.820186139711788,-2.654060364468757,986.1921346205075,2.0797712348749706,0.06993006993006994,74,519991.06657036557,15,13.811182040687092,0.005429157531714374,2.775020666227676,-7.3713107,6.673092,0.0959816026585919,-2.3365595,2.144748,4.4813075,-0.07394427874973197,7700.76920321795,2.461766487628077,0.028971028971028972,31,3854249.7535768254,14,24.30711314466368
16,running,1.1104270978293254,1.150699684276031,-1.6220044,5.0959153,1.065557193881344,0.22489876,1.7411044,1.51620564,0.5231235708407819,2558.391151326209,3.254134747889022,0.025974025974025976,63,1898232.6058993605,0,15.57470393770558,0.11676696500261129,0.741099848011097,-1.9092598,1.8044373,0.0290426628012352,-0.3969456046148463,0.7105740131113273,1.1075196177261737,0.006710060533204469,562.877143362108,4.116143751355896,0.03296703296703297,51,288550.9136520735,14,7.4779012465839925,-0.017992564058778564,0.4389670686636952,-1.2090596,1.2974083,-0.065005460286163,-0.319169190071713,0.2292102222217481,0.5483794122934611,0.3543916625937221,193.016143464968,3.2658127605523815,0.08291708291708291,81,96766.76987914869,14,6.936668914607214,0.13607693084003453,1.2558510564123477,-3.9278636,3.1435125,0.0946836698753788,-0.6198746836947585,0.99759856510361,1.6174732487983685,-0.24008454550942324,1595.6973239299605,3.3529561113887607,0.07192807192807193,60,807923.5023699393,14,16.625380831067506,-0.13562572341670073,1.0502834101831524,-3.318004411764706,2.864958,-0.06566802,-0.759000075,0.5852089,1.344208975,-0.5454091183520468,1121.5079728951077,3.3270417011779663,0.07192807192807193,71,570530.3123941737,14,14.778888786203428,-0.007983423263380668,3.29689270658696,-7.8404555,7.0823717,0.029321533,-2.832853611111111,2.74465491384704,5.5775085249581515,-0.04302286080366206,10869.56531752834,2.4774371971974882,0.028971028971028972,35,5440249.372713351,14,26.39865465724447
17,running,1.2433034803672103,1.3902520449505467,-2.2709527,5.171573,1.1722948692553845,0.2206277649999999,1.9957376981636188,1.7751099331636189,0.40134767358243806,3480.150096326688,3.3352440757672652,0.027972027972027972,50,2516263.471804181,0,17.129545051250076,0.02071255557805241,0.8182024446358864,-2.0109097,1.8619128,-0.0577682171715006,-0.631437115,0.77256322,1.404000335,0.018875099013821357,669.8846793766734,4.265347829502381,0.03196803196803197,47,335492.2162317755,14,7.10745900622458,-0.03785621857694244,0.4871677672041513,-1.23505165,3.5834925,-0.1029620838307181,-0.34851375,0.2037870794944544,0.5523008294944545,1.7597994118809424,238.76695978090837,1.9021660926862556,0.08891108891108891,70,120220.84382264884,27,7.707112451216697,0.1607195730515147,1.104032503996074,-2.6535985,3.209486,0.1777618,-0.5652538693979708,0.84238315,1.4076370193979708,0.0955863610252408,1244.7443818228646,3.7074390913725703,0.07992007992007992,63,635935.7973798267,27,16.890272610673502,-0.1675564909443748,0.8813732591175737,-4.3860126,1.9620992,-0.1301473659451505,-0.6793339380252043,0.4410451722631583,1.1203791102883627,-0.8991114099667086,804.9220747227837,2.861668433868623,0.07392607392607392,71,416929.17644279584,14,13.598369409174332,0.006024681902190423,3.6841578096587093,-7.4922625,6.2851925,-0.0588402530782324,-2.9905907987848583,3.6154059,6.605996698784859,-0.20315160236508634,13573.055099558072,2.644782011965477,0.027972027972027972,37,6793332.262039768,14,27.342718373171373
18,running,1.205923372999122,1.2089845791616258,-1.6293261,4.5133505,1.257627,0.3952507249999999,2.078951950003919,1.6837012250039192,-0.10118948664530979,2905.6855658009536,3.6686459240418716,0.029087261785356068,52,2171253.635910246,0,15.321964477405087,0.08966142866720707,0.8063901638183916,-1.4394496,1.8216432,-0.1017218264701934,-0.6071322542403841,0.8413385796187381,1.4484708338591221,0.32496048807782185,655.679090193113,4.614732411814914,0.03009027081243731,38,330851.53101749043,13,7.417194797844876,-0.09992693878670027,0.43671317647201985,-1.2415192,1.5556209,-0.12398108,-0.37145513,0.12032023,0.49177536,0.7660122466501443,199.91096182625952,2.694650378737741,0.08926780341023069,71,104618.39977301395,26,7.21511659477788,0.1460010708661354,1.1821995662837312,-2.796541,4.4849725,0.1638479049749545,-0.726471515,0.935234675,1.6617061899999999,0.2190019903221368,1413.2577950193327,3.136994353158964,0.058174523570712136,58,715103.3141494914,26,17.431877611818997,-8.431326438507215e-06,0.7465366620068851,-2.2177462500000003,1.9321668,-0.0424684098484416,-0.54672291437568,0.5262604200000001,1.07298333437568,0.1257910721515224,555.0877198403746,3.864609417622011,0.07522567703109329,69,276711.22837575746,13,11.05511839696161,-0.053522796289828124,3.7595596335657357,-6.527706,8.671232,0.0600548365333333,-3.46544079572224,3.3685630844056766,6.834003880127916,0.0890054076549727,14080.607579437095,2.465480160803072,0.02708124373119358,28,7020606.64203267,13,32.24001211193713
19,running,1.1640180251637637,1.2495126204922937,-1.6915607,5.3446097,1.1379169500000001,0.24965080693792008,1.9002500504166666,1.6505992434787466,0.3193964356830419,2908.826030383547,3.3246527977702667,0.02905811623246493,61,2126266.022939452,0,16.29704318199042,0.1385758418369817,0.8208713379250521,-1.50925,2.0869334,-0.01677891894934845,-0.5374751124999999,0.8944041167662773,1.4318792292662772,0.23642770358057352,690.9731215795309,4.470894342544112,0.02905811623246493,47,354358.85249899473,14,7.692425736833504,-0.06422737495640687,0.38246134779754803,-1.32279025,1.1408456,-0.11879486175000001,-0.3163132928642559,0.13426612237433627,0.4505794152385922,0.5755466424991971,149.95475789384295,2.4479793518598356,0.07715430861723446,74,76881.93751329684,27,6.222725670520565,0.028162122454907724,1.0815659718059547,-4.107458,2.5503623,-0.007330382999999999,-0.6720140945703094,0.8351469805536382,1.5071610751239475,-0.28893963792337446,1167.0671154453366,3.2353492598249893,0.06913827655310621,56,582777.2418877325,27,15.525965637544935,-0.08764294520515815,0.9525589102140432,-4.9528956,1.9920316,0.0018838304926504998,-0.6843452676301349,0.5897903725,1.274135640130135,-1.0480520739036367,912.3122952684269,2.7345140100360794,0.06513026052104208,72,459076.0425082669,14,13.664535951421549,-0.0313999025212313,3.5289181159012704,-6.076277,6.9192705,-0.10313385461992369,-3.189800070156552,3.2294116298886713,6.419211700045223,0.06551471508172287,12416.88726150055,2.8052753511689206,0.028056112224448898,30,6196517.779380683,14,27.89503795108254
20,jumpingjacks,-1.2789961331122155,2.83718323155493,-7.9944906,6.482367525,-1.7151611,-2.3543242666666666,-0.587503785,1.7668204816666666,0.6145154952148328,9687.075629040992,2.19049663292336,0.02197802197802198,57,5667933.555617085,10,23.880431023268862,-1.7109729586359512,1.0374807684767158,-4.16173675,1.35076475,-1.8189475125,-2.3423622,-1.098402525,1.2439596750000002,0.35176086004094725,4006.722238607681,3.74386832351985,0.012987012987012988,91,3472007.60519429,0,14.67980989850086,1.0004667451400393,1.0520906417270641,-2.16969975,6.280366366666667,0.957533,0.3953821466666667,1.382938975,0.9875568283333334,0.697556276030818,2108.829360248901,2.4077364555298177,0.025974025974025976,73,1556937.3830451118,0,14.727884909190491,0.5086276150296113,2.644591622250407,-9.613896,7.579545542857143,0.82853795,-0.6919626666666666,2.264818055555556,2.9567807222222227,-0.7176509980165393,7252.825601298519,1.970759046541949,0.053946053946053944,66,3759649.07023706,30,33.99201112040965,0.061785567728102446,2.839130130588827,-7.380715,6.756505,0.37360945,-2.075625,2.312667775,4.388292775,-0.27707847908302374,8064.48117225319,2.4635933714916294,0.04195804195804196,77,4038185.3742675697,10,31.101420651181424,-0.018632542449297147,6.5039966462686,-12.55733975,11.09285888888889,-0.0642057612499999,-5.1889186,6.698551,11.8874696,-0.14536688961796146,42302.319893482956,1.8315020411641554,0.02097902097902098,50,21172485.039852504,10,40.73879930546659
21,jumpingjacks,-1.3386428511485597,2.8755878549662546,-7.9944906,6.8052444,-1.71650255,-2.30124715,-0.3727012755555555,1.9285458744444446,0.32378634267653467,10062.7621592435,2.1870039072613894,0.01998001998001998,48,5934187.662832217,10,28.975473539892494,-1.543791468772802,1.0296522932848142,-3.8264123,1.6473217,-1.739812025,-2.2407203,-0.94052365125,1.30019664875,0.5709511531338145,3445.8592362214176,3.6773145949342485,0.017982017982017984,80,2918683.0810017665,0,14.965611180226801,1.1808933270676876,1.0637307730512613,-2.788908825,4.861445411111111,1.1028388,0.6305415511111111,1.6255826,0.9950410488888889,0.2799507997014853,2527.4267164991397,2.65620263958308,0.023976023976023976,83,1963626.8028687527,0,16.697460414194566,0.16877643679299073,2.488796444618979,-7.76363945,9.166407666666666,0.2590586377777778,-1.4008255,1.9449377,3.3457632000000004,-0.20247188972040953,6222.621713850225,1.9721320139735983,0.04395604395604396,79,3128693.4103186666,10,31.448605327309405,-0.2928238981354627,3.0337734376108076,-6.999613833333333,7.233373333333333,-0.3005368525,-3.0123932,2.4517882,5.4641814,-0.07238872956738103,9289.612851907466,2.4707251402047463,0.03796203796203796,72,4692409.938747548,10,32.819153437631726,-0.2053334973811884,6.059482616743755,-10.456458,11.237015,-1.168188145,-5.515110733333334,6.3002787,11.815389433333333,0.06114668479556676,36759.53358961168,1.9577396587162696,0.025974025974025976,54,18419269.66710011,10,48.586152874365396
22,jumpingjacks,-1.2312193371450753,2.883894877873587,-7.9944906,6.442946888888889,-1.7105266,-2.4285868,-0.0663216177777777,2.3622651822222225,0.37728435146517997,9834.266623841628,2.2607180716854742,0.02097902097902098,52,5681517.632319401,0,29.132122405903676,-1.5282090884607262,1.0756777645142201,-4.82688235,1.6361853375000002,-1.6245359,-2.1057745,-0.9356643,1.1701101999999999,0.10766996593365125,3494.841094142328,3.2255314469066385,0.014985014985014986,73,2919216.0673747794,0,15.250108328836761,1.0567110211453905,0.857106159429976,-1.807697088888889,4.311264333333334,1.031287325,0.6446548022222223,1.4127958,0.7681409977777778,0.4538193988862493,1852.385788925148,2.82435884391535,0.01998001998001998,88,1486555.374963405,0,14.020248946525987,0.33884266380259825,1.85398365057431,-4.9493136,5.1898346,0.5716766799999999,-0.7633300475,1.5179554,2.2812854475,-0.34425825041390135,3552.184541760498,2.8827255802500367,0.057942057942057944,75,1835390.4103155378,11,27.204162395765334,-0.11433830528022193,3.0651578510749236,-8.074026,8.55934475,0.10605835,-2.3892527875000003,2.342751925,4.7320047125,-0.13791269605396242,9408.27897330865,2.173278587765709,0.03896103896103896,78,4715393.329952834,11,33.799229890364785,-0.08168759865635554,6.283540852639674,-13.459340333333332,9.33932,-0.4377993133333333,-5.4082127,6.3238535625,11.7320662625,-0.11824903898789219,39489.56518342974,1.8729303529339332,0.01998001998001998,53,19767870.482393906,10,50.626171587630175
23,jumpingjacks,-1.3597429030808952,2.9205977728933825,-7.9944906,7.0390387,-1.8136272,-2.523257122222222,-0.68699507625,1.836262045972222,0.5616449270855471,10380.641014271127,2.148750428675501,0.02097902097902098,43,6121811.03409499,0,31.260990204568156,-1.4863798302641935,1.0923215371916437,-4.6795986,1.570427,-1.7044287,-2.1754317,-0.8949303,1.2805014,0.4458813210812343,3404.7006654287443,3.361918856097138,0.02097902097902098,81,2810925.612617508,0,14.71146176427005,1.312622749713313,0.976530404037103,-1.580702,7.1442275,1.2500729,0.8425660811111111,1.6812363333333336,0.8386702522222225,1.1877915552899976,2678.313091556871,2.189130778118275,0.023976023976023976,84,2203708.783828989,0,16.01095290790605,0.1821071530679053,2.485818642917692,-7.507075222222222,8.451699666666666,0.32611609,-1.3592879,1.9730366,3.3323245,-0.2330379521802626,6212.490503690852,2.088226253680701,0.06293706293706294,65,3125966.1842932263,11,36.33527659868551,-0.2526173995702948,3.517888472406812,-7.595580125,7.9593396,0.0432089602222222,-3.408833,2.6503136,6.0591466,-0.1225200532898815,12439.418670408959,2.370197145287073,0.026973026973026972,81,6257900.667280853,11,33.480057143065316,0.13447437065477622,6.224387151239469,-12.88696825,9.234865,-0.0055739549999999,-5.2151847,6.2239226875,11.4391073875,-0.18647108208859178,38761.096848234345,1.9280632790082013,0.01998001998001998,46,19408988.74312083,11,52.68425413008862
24,jumpingjacks,-1.2856789095401742,2.8155680227731623,-7.9943386,6.643571822222222,-1.7921980999999998,-2.5168276125,-0.19351739,2.3233102225,0.5153649023483757,9582.046519557622,2.212468916767286,0.02097902097902098,52,5623953.209000361,0,26.992309095680923,-1.4434466178987877,1.0710833962140727,-4.139266,1.7583305375,-1.5406692,-2.055333475,-0.90831862,1.1470148549999999,0.24980475001929872,3232.841318507645,3.5342981313824375,0.01898101898101898,75,2661890.7291825954,0,14.06802033950249,1.153697686715097,0.7644022575826429,-1.5658421749999998,3.9247715,1.1214069,0.70089456125,1.5142956,0.81340103875,0.44033058733369185,1916.660182081539,2.9562879907761404,0.01998001998001998,92,1626129.2811592012,0,12.906714641653048,0.37022773895559385,1.8535888615744165,-4.850492166666666,5.4854082,0.50860671,-0.8509866,1.6247773625,2.4757639625,-0.17565070116786372,3572.9973150236056,2.8246155307387446,0.055944055944055944,80,1856956.5826283817,11,26.44097436889075,-0.22282962009851257,3.4180404260913493,-7.924216125,7.804862,0.0151778655555555,-3.17526045,2.8280702,6.0033306500000005,-0.18557567679655926,11732.703047027571,2.3177758181148507,0.025974025974025976,79,5897094.072700035,11,32.93242148521901,0.0913652287772466,6.242205009795272,-13.247444,9.868467,-0.0646298214285714,-5.1675386,6.153369875,11.320908475,-0.20554185696241573,38973.47933694774,1.8819304316739918,0.023976023976023976,51,19510408.562435936,11,50.10743544472279
25,lifting,0.5639488229778853,0.22133353145315413,0.00359776775,1.002863425,0.537135,0.38584566,0.7453179,0.35947224,0.07074120217111805,367.34484535860463,-2.3954810047212263,0.0,106,343193.42986512824,0,2.8818986388017165,0.030731163945263106,0.06119869683140446,-0.252766295,0.39706585,0.0274541771888888,-0.0047970280444444,0.06540016,0.0701971880444444,0.6737777604054472,4.6906293357302244,-30.869966414454016,0.08591408591408592,118,2820.8070778879455,0,1.1766328475585475,0.6359368186307721,0.6002728711571712,-0.5061812933333333,2.6222184,0.7296729000000001,0.1398557299999999,1.1184798,0.9786240700000002,-0.15837066778875838,765.1475727747915,3.649725691134229,0.011988011988011988,78,585568.796664006,0,6.152083595331117,0.012154214036985472,0.3893029536218577,-2.343973725,1.2642247875,0.02687728,-0.19974706,0.24922568,0.44897274,-0.3910757892987783,151.70466234247795,1.7010084242105947,0.056943056943056944,75,76002.19376061996,6,6.018975633736436,-0.03377035812631974,1.8150769462705887,-3.2206922,3.80741105,0.0071010995,-1.8383448,1.5526210333333337,3.3909658333333335,0.07870644567163763,3295.6458984080336,3.820631449029927,0.026973026973026972,86,1650042.131704517,6,15.119491874942955,-0.010959697071199058,0.20380111082714406,-0.516547735,0.5925982,-0.014583978,-0.15019207,0.098422766,0.248614836,0.31901225395081656,41.65512784923019,-2.6231015669686313,0.055944055944055944,89,20908.569143503304,6,2.402061693794568
26,lifting,0.5197952379331938,0.18270369584206064,0.09372498,0.866666445,0.48688814,0.3823156633333333,0.67357591,0.2912602466666668,0.032279744507364885,303.8379169417518,-7.389464844822467,0.0,99,287434.74430128234,0,2.56572353794591,0.04260138865301701,0.06297279909945977,-0.1453972124999999,0.24916087,0.04247199,0.0021139444444444,0.07540074,0.07328679555555559,0.392760124394744,5.782266619901494,-51.271028912694106,0.061938061938061936,99,3803.2793865977233,0,1.068866016432371,0.584797641124451,0.7377818790766275,-0.7284876,2.517749775,0.75369237,-0.1417232125,1.2468072,1.3885304125,-0.22256271961853635,886.6523704396263,3.8429985161983167,0.013986013986013986,48,615105.8112125994,0,6.613660034044121,-0.0007552862083894707,0.4124797226381664,-2.1960723,1.1679399,0.0135065107777777,-0.203564855,0.2458660225,0.4494308775,-0.6085222820909785,170.1400926153725,2.2019072785739024,0.05194805194805195,56,85155.40215336469,8,5.865493013288897,-0.06632664023063445,2.495803006208574,-4.454679955555555,5.90727475,-0.2642678,-2.4100978,2.101162,4.5112597999999995,0.17257904218524758,6233.436268227244,3.079938512341571,0.024975024975024976,52,3122038.8652726933,8,17.353274707880523,-0.04520605737396738,0.20452384342514626,-0.6490506866666667,0.51318806,-0.034741938,-0.16401248875,0.07398888,0.23800136875,-0.3231211750877885,43.87563374031548,-2.288697683037365,0.04995004995004995,66,22983.593108094217,12,2.4625695246931123
27,lifting,0.5440230246674397,0.18934427872963114,0.137698575,0.94322574,0.49737656,0.39096794,0.71653575,0.32556781,0.36827230247396797,332.10826830732225,-7.324332522259466,0.0,102,314496.8230038635,0,2.6886186273470334,0.042352134533168134,0.0695163470029826,-0.18010198,0.3019383475,0.032048906,-0.0026830831333333,0.0741582915,0.0768413746333333,0.912865648149943,6.628019503454176,-39.73097503631301,0.07692307692307693,104,4215.970011387765,0,1.165439124354918,0.6054776082564517,0.7002902911162333,-0.76605076,2.24052695,0.7502774833333333,-0.0170030266666666,1.17827,1.1952730266666665,-0.16861588953147352,857.3762290657121,4.3659983826915445,0.013986013986013986,58,612785.1561330324,0,6.647986345448431,-0.01788085775651365,0.42640689002780735,-1.952344275,1.103801,0.026877279875,-0.184323165,0.2080952999999999,0.3924184649999999,-1.046577864587496,182.1428806623694,2.2133439532310404,0.06993006993006994,74,91322.69419350686,22,6.897268014585822,-0.03173629850173713,2.2562992006817537,-4.0037985,4.42276325,-0.04344651275,-2.1003983,1.8837003,3.9840986000000003,-0.008147651843871083,5091.894282832356,3.5494884534389373,0.024975024975024976,63,2548997.6925751283,7,16.983046569902548,-0.02226176584073676,0.20641268938700286,-0.6295035866666666,0.5662444999999999,-0.01885990775,-0.13797513,0.1226275865,0.2606027165,-0.29451627400572644,43.10228014454147,-2.3016545601300487,0.05094905094905095,64,21820.98015552836,9,2.6696411603954404
28,lifting,0.5444367553277794,0.15717311088519914,0.2544525111111111,0.89005196,0.4983251488888889,0.4182053222222222,0.6823569,0.26415157777777787,0.5296142554915249,321.41117871772326,-13.740032272719832,0.0,100,309368.5448103828,0,2.4618023093662247,0.03347052950764419,0.05746063288821073,-0.08434435,0.2772418,0.027699787,-0.0012195833333333,0.055155657,0.0563752403333333,1.272132203259408,4.423120953781328,-62.25971451626651,0.07292707292707293,113,2775.031046612289,0,0.9977892269897133,0.5969036422610928,0.7077439906218164,-0.6897440914285714,2.146085475,0.76605076,-0.0327022565714285,1.220924822222222,1.2536270787936505,-0.24018776174357512,857.551808363997,4.4977775083818425,0.01898101898101898,53,607708.1312635831,0,6.267234273934225,0.005355907914700579,0.43993634135429593,-1.607826325,1.3707412,0.012216945,-0.2462587071428571,0.3197021875,0.5659608946428571,-0.3006907544750344,193.57269887954396,2.85084591796746,0.05194805194805195,61,96897.5073640996,23,5.469423950773689,-0.11597954488706035,2.3623085697387745,-3.9811206125,4.6637425,-0.1399094766666666,-2.3842386777777778,1.896528,4.280766677777778,0.09911224510032107,5593.966484748296,3.492434322786113,0.024975024975024976,69,2806519.311013086,8,15.758678461349389,-0.016566924975590838,0.18565180775092538,-0.6525703014285715,0.5047889125,-0.024357535,-0.1352263125,0.1031059266666666,0.2383322391666666,-0.1670522987051959,34.741331187336556,-3.542998669431163,0.054945054945054944,58,17525.54236107002,23,2.2685814555801933
29,lifting,0.5500805704375069,0.14462438677914832,0.2946682711111111,0.83099365,0.5149386,0.4314886,0.68805844375,0.25656984375,0.35148384728931614,323.80743585807056,-18.799856595859612,0.0,102,313662.67856168054,0,2.4023712903910432,0.03423773932786045,0.05596855133418149,-0.14301139,0.2169333974999999,0.0380205115,-0.0009451770624999,0.066863656,0.0678088330624999,-0.014763992311146066,4.305873755523713,-58.66897498045663,0.06493506493506493,102,2742.3740206865587,0,0.9847868925162762,0.5715241125888274,0.7287310743996626,-0.78900945,2.517033325,0.7195808525,-0.12811723,1.226573125,1.354690355,-0.1378609855646389,858.0154298774037,3.903657457986783,0.015984015984015984,57,593083.4314200396,0,6.292867595499482,0.03188026237829971,0.36306475653015186,-1.8192558625,1.4138824250000002,0.027488127,-0.18691926,0.2901524542857143,0.47707171428571427,-0.26953620701154846,132.83338491473697,1.710318879711057,0.058941058941058944,63,66992.30157378534,8,5.091083175120184,-0.06568094730498172,2.373455801742808,-4.197742225,5.164637,-0.06253549,-2.28945545,1.96005615,4.2495116,0.10248206586443837,5637.610743652315,3.2817502162613184,0.01998001998001998,58,2823785.486761255,8,15.558073415674182,-0.0051839520013706305,0.1608524823710201,-0.549686165,0.493793625,-0.0199288914249999,-0.108654454,0.100866154,0.209520608,0.1368455776287474,25.9004213166302,-5.693311745679557,0.054945054945054944,69,12976.6244349447,8,2.048314432921151
30,rowing,0.9419791129700339,0.08995177600136091,0.6410778375,1.2825748,0.9385380325,0.8751426,0.999601,0.12445839999999997,0.32640986127808325,896.3032959268828,-22.413155101612627,0.0,122,893149.8925589073,0,3.4258874037769864,-0.004574961107449193,0.07927653181693561,-0.2328184511111111,0.23452587,-0.0069859261375,-0.0564023413333333,0.048082076,0.1044844173333333,0.08619156382956766,6.305719696325412,-34.27241628454067,0.1018981018981019,130,3166.4987833124746,1,1.3440988032748908,0.30842506024506866,0.3373109182078102,-0.45087996625,1.009662525,0.2818762,0.054423906,0.60835865625,0.5539347502499999,0.0853155598303743,208.99979934715736,2.5528897801449433,0.03796203796203796,117,152262.5820476354,0,3.554890661806768,-0.007752000799770585,0.3725442683618263,-0.9654271233333334,1.0744039333333335,-0.031840414,-0.24388076,0.21982865,0.46370941,0.11713997278210815,138.8493854991645,2.941109066613326,0.061938061938061936,79,69524.22432409479,25,5.0337109359478465,-0.006232985848215592,0.3989725701956368,-1.3525685,1.4708438,-0.017170535625,-0.2489202549999999,0.2436517,0.4925719549999999,0.040197383496299546,159.21800073120897,2.5835024996654488,0.0939060939060939,110,79708.07329179975,14,6.5386926488364425,-0.009313590240490499,0.22206184456062286,-0.76844585,0.6286382,-0.0022312893088888,-0.14148749625,0.1466797,0.28816719625,-0.2795173755024086,49.39829251579715,-1.1177878882137524,0.07992007992007992,91,24767.303672075002,18,3.322582922462202
31,rowing,0.9399108371381752,0.09953836755987597,0.47051528,1.230917925,0.9412172525,0.8799674775,1.0060267,0.1260592225,-0.22872136679814367,894.2237007680402,-16.756795549765528,0.0,104,890159.0272172575,0,3.5261007115726186,-0.046761186510650136,0.07335054400691905,-0.28931566125,0.15595421,-0.04317325375,-0.0983594,0.006227497475,0.104586897475,-0.2553734272775591,7.5690974785586596,-38.326127848278034,0.08191808191808192,121,4883.825271828679,0,1.315506090343415,0.28817328989557495,0.3827926652491281,-0.4312684022222222,1.1184798,0.1945472611111111,-0.01979917425,0.6032974,0.62309657425,0.34165094077309316,229.65711342277933,3.1514763825518703,0.04795204795204795,100,156548.3931396523,0,3.849586890980279,-0.01185772396509799,0.4397910868479082,-1.1369394,1.2770016333333334,0.0102316915624999,-0.2882690066666666,0.22419185,0.5124608566666666,0.14323400575405987,193.5569462941144,3.478525773018696,0.061938061938061936,71,96945.69510494091,27,5.694721533160121,-0.0051133528457346245,0.5015405600386389,-1.5077237,1.5282635111111111,0.0054042977777777,-0.358414625,0.34993914,0.708353765,0.020780034618447348,251.56910588757384,3.518565525192037,0.07392607392607392,98,125923.4368448437,11,7.250047263566195,0.012837452312909512,0.2610103367030527,-0.7609799666666667,0.6296562855555555,0.02176143335,-0.14576343,0.18129438,0.32705781,-0.25224135494536903,68.29136084790903,0.5200887678179527,0.061938061938061936,84,34262.39107790356,11,3.6458090358203594
32,rowing,0.9465773181347025,0.08228170050666704,0.6008583,1.1887545874999998,0.9456954,0.8968816399999999,1.0020944266666667,0.10521278666666678,-0.2575692902419948,903.6749060645619,-26.345557842482997,0.0,123,901190.0567123728,0,3.2076082953355134,-0.05461052364411053,0.06869148253121218,-0.2464235933333333,0.14957426875,-0.05232012525,-0.09976192,-0.0012195833,0.09854233670000001,-0.11821036413168112,7.703811374312467,-45.905323916770236,0.0919080919080919,138,5349.8960396326975,0,1.2067689241074235,0.2636882331910582,0.377498562448502,-0.3562402925,1.03951185,0.1630820144444444,-0.05399705,0.593270125,0.647267175,0.40529849980445903,212.10618045843086,2.652617765106323,0.03796203796203796,111,140994.4517312212,0,3.5123046778747344,-0.009706028602793718,0.38383087598320237,-1.0715789,1.372497425,0.012751437,-0.23469897,0.2187596725,0.4534586425,-0.025277715004165553,147.420442556262,2.5465564418443747,0.06293706293706294,75,73831.12924912297,26,5.013529956118642,-0.011016131158325261,0.46276086013235485,-1.618592575,1.71915325,-0.00015271181,-0.3022930312499999,0.2729723675,0.5752653987499998,-0.15003051342811424,214.26909017128003,2.767101355911157,0.07392607392607392,105,107302.47861939762,6,6.957097951736838,0.004751213141211525,0.219344720908916,-0.6238786666666667,0.7346541255555555,0.019088976875,-0.14408360125,0.15584241,0.29992601124999996,-0.04473002305246379,48.134703190949786,-1.1701727448557881,0.07792207792207792,85,24102.728545540303,10,3.1512320960381555
33,rowing,0.9713675111699175,0.10269201899550695,0.53323233,1.246536125,0.96862364,0.9037112666666668,1.0440025714285714,0.14029130476190466,-0.3320831560629059,955.0440473635696,-17.51314984310507,0.0,112,950720.9932028635,0,3.477900511055527,-0.03310306154126477,0.0843420325565444,-0.3223629766666667,0.20915854,-0.0314144346666666,-0.07515682,0.011951917,0.08710873699999999,-0.41139727797445075,8.210486951857362,-29.671213291254386,0.09290709290709291,131,4658.351421696738,0,1.4211650696132485,0.21169148454229814,0.34155136734415426,-0.62146155625,0.9759410866666668,0.15790555,-0.066701048,0.4621611062499999,0.5288621542499999,0.313788128614352,161.5154344470112,2.30976976836725,0.04295704295704296,104,103289.95294586015,0,3.6241611714896855,0.018033125574032954,0.4159162568047942,-1.407697525,1.1695603888888888,0.04023956,-0.2251481166666666,0.28961795,0.5147660666666666,-0.33017763960436874,173.31185148609833,2.9488742635743725,0.06293706293706294,74,86905.50383399143,31,5.83259895664514,-0.030006195244862754,0.5257559661431247,-2.1291844875,2.1873677,-0.0129041482,-0.3271596144444444,0.32794863,0.6551082444444445,-0.15728268094997075,277.32060805991625,2.581273576756469,0.058941058941058944,87,139250.05103246347,11,7.626292632211182,-0.011404638709573795,0.25985667041900345,-0.67926216,0.69277716,0.0019088977,-0.19424942,0.1704263875,0.3646758075,-0.11520859030416163,67.6556850111306,0.5219753222474663,0.06893106893106893,83,33926.833370935805,19,3.706973097522689
34,rowing,0.9656962952561725,0.0976644653519585,0.6995225333333334,1.2377348666666663,0.9659405399999998,0.90081862625,1.0257305,0.12491187375000012,0.0871619624534788,943.0402517986519,-24.39809611376383,0.0,113,939209.3489803124,0,3.517640273915279,0.01700594409415338,0.08764533930570131,-0.34434935,0.2123218275,0.027318668,-0.0361843603333333,0.0762951012222222,0.1124794615555555,-0.6144846574414058,7.971196838679516,-26.64231157552224,0.08791208791208792,119,4134.474431761433,5,1.4207793511770175,0.2111251027305631,0.3344752975235883,-0.51884125,1.0092018111111112,0.1487756177777777,-0.06809086275,0.4348424377777777,0.5029333005277777,0.49053469105469805,156.4921074654867,2.081374520171772,0.03996003996003996,102,100655.80038387903,0,3.4891060228289894,-0.005326579713155831,0.41288319242673865,-1.1737939666666668,1.480685277777778,-0.029397024,-0.290916,0.27480492,0.56572092,0.2532711297805343,170.50093141238736,2.941701465952158,0.061938061938061936,74,85349.93078425784,21,5.378204348314093,-0.030080014821154803,0.4710762561983956,-2.0477128,1.54475636,0.011453386,-0.3168770225,0.29511559,0.6119926124999999,-0.579706313886426,222.81855125282897,2.5633863439070783,0.08291708291708291,95,111973.9938075566,16,7.0813958159873325,-0.002478819371765219,0.27403166770300186,-0.7442156066666666,0.8467107,-0.009544488625,-0.1856296966666666,0.1824579,0.36808759666666657,0.19603055460078486,75.09950559411175,1.0710467557031764,0.059940059940059943,78,37590.380970209604,16,3.6919404492282246
35,running,1.405823495279303,1.6175009237696913,-2.191072911111111,5.334122,1.441578,0.20189438875,2.6101658,2.40827141125,-0.0434637295145375,4594.625277974999,3.5783941692156103,0.028971028971028972,55,3289757.129435875,0,20.709316299193635,-0.43270774262901185,0.9464937652775058,-2.5881930444444445,1.7434554,-0.70260197,-1.106905275,0.309690335,1.41659561,0.3988229848093293,1083.2736742308166,4.199824052457393,0.028971028971028972,72,635983.7988265975,0,9.997432907398442,0.09750031757069261,0.6763653286704024,-1.7949149444444443,2.977975277777778,0.0180041,-0.35216822,0.4821737075,0.8343419274999999,0.7653352377460109,466.98587606573375,3.0290830484433164,0.07492507492507493,87,238489.09799917502,14,10.270672868568013,0.3298062964522142,2.3526857096199856,-4.488836600000001,9.04769775,0.11987878,-1.3400462,1.6374354000000002,2.9774816,0.6212578177546977,5644.011013622801,2.3801592977524306,0.06593406593406594,69,2879322.435487251,14,30.443024171812695,0.0014503155862443109,1.7124028094383317,-5.962938125,4.0060892500000005,0.3006322875,-1.0659115555555556,1.1611443125,2.2270558680555554,-0.5813675094202476,2932.3254872910065,2.7974405675098173,0.08691308691308691,90,1467629.9602012655,14,26.37355161331162,0.15746546021078725,5.15702765757495,-7.4114860625,11.998296111111111,-0.8460998,-4.497821,4.559643933333334,9.057464933333334,0.4554687215157307,26619.754427523534,2.106459665876295,0.03196803196803197,46,13335609.584324073,14,43.0008298010084
36,running,1.4364718074641292,1.5220701540489239,-2.12183115,5.647636233333333,1.5184728,0.3715156,2.6069205,2.2354049000000003,-0.12041747946821013,4382.212258739416,3.3092823809799574,0.02197802197802198,57,3227087.345297975,0,16.074560305518325,-0.5438690553287744,0.6955263424517352,-2.362573511111111,1.1302679625,-0.5592132725000001,-1.0848346624999998,-0.03412927725,1.05070538525,0.12367144018036928,779.8462359378459,4.240566271418728,0.028971028971028972,56,538505.7572051175,0,8.263090112594488,0.023586897175350164,0.3580601961944323,-1.3513186333333331,1.2548903,0.0,-0.1877142116666666,0.24394716625,0.4316613779166666,0.0412677933208799,128.7640021588743,2.230443248049192,0.08391608391608392,93,64725.11055958606,12,5.606495115822797,0.34818893688015,1.9213127472443101,-4.3815312,4.7568967375,0.17241164,-1.0903453444444444,1.7921494875,2.8824948319444443,0.15630655087036893,3812.799444024973,3.2016123014851035,0.06593406593406594,57,1969045.1857708972,12,23.18202780481712,0.20227077195763898,1.4039449951563772,-3.9905887875,3.221303,0.2732778,-0.7101268866666666,1.236516077777778,1.9466429644444445,-0.30742093938983384,2012.0159280781675,3.466356750010723,0.07792207792207792,78,1027511.6385192132,12,21.045510052836253,0.05148212983216939,5.833794839086541,-8.636464,11.994596875,-0.5800663,-5.46838105,5.5624704000000005,11.03085145,0.2808778506847241,34035.81528465451,2.040223602229255,0.025974025974025976,39,17036253.406550508,12,39.49629302148628
37,running,1.3820782113331915,1.531930127315917,-2.0442579125,5.592765325,1.4048990333333335,0.21062206,2.6072423333333337,2.3966202733333337,-0.0502899376789077,4258.860237402357,3.4116170011803204,0.023976023976023976,58,3088540.7351931897,0,17.101783321922856,-0.4939705636534898,0.7357993266700898,-2.2377423333333333,1.4813022125,-0.5505161375000001,-0.9656966,-0.0522934468749999,0.9134031531250001,0.30991489269692357,785.6515738020602,4.174125776777049,0.03196803196803197,59,515466.2004872193,0,8.442175599872163,-0.021651542056987653,0.3979118637688536,-1.267112825,2.2725716,-0.0435289613333333,-0.2529822444444444,0.16644263,0.41942487444444443,1.100903666094892,158.80310939072166,1.8042298619781667,0.08891108891108891,83,79715.81991044703,26,6.342275014946454,0.24622620852464974,1.796721402851457,-3.8818579375,5.1185946,0.08666395375,-0.98025715,1.444272,2.42452915,0.26798117552709066,3288.895772574697,3.17031425831873,0.06793206793206794,61,1676466.6647152852,12,22.265398289369447,0.13013809562016773,1.4982938771085554,-5.930105,3.299016377777777,0.2979980024999999,-0.7805100650000001,1.3068314,2.087341465,-0.8109774737110488,2261.8374020365627,2.7611626823751765,0.08591408591408592,79,1140534.526077015,13,21.979943181278472,0.1552080467014065,5.563494352861396,-8.338709777777778,10.964470444444444,-0.9016869,-4.9968834,5.309561,10.3064444,0.3923640015825352,30976.58304161927,2.1445446676516204,0.025974025974025976,39,15515848.682793407,12,37.56694384805678
38,running,1.509573623194506,1.8786647588813175,-2.6842725,5.9293704,1.1832956277777777,0.312352445625,2.891352,2.5789995543749997,0.20538894133106453,5804.664418830926,3.3431920577701417,0.024,51,4041739.854490071,0,21.94150444930988,-0.43226246491653864,1.1076449079287503,-2.5322208,2.141818877777778,-0.7922184906249999,-1.3260053374999998,0.5580680381249999,1.8840733756249999,0.3665965275327722,1412.5012033941512,4.169385615832418,0.026,47,799676.0235903657,13,9.718550640543388,-0.016047292208457145,0.6258154733848451,-1.4870583222222222,1.5572555,-0.015854584,-0.5071761312499999,0.43514732,0.9423234512499999,0.04381800373908039,391.5108773083935,4.337611364401623,0.065,82,195884.21957670632,13,7.569709566472363,0.1812472289481583,1.854807005817328,-3.9643223125,4.7661357,-0.17054091687499995,-1.1355701591666667,1.736257,2.8718271591666666,0.23390692821657738,3469.7192778015983,3.2600207833430286,0.064,66,1751296.8701549564,13,23.355346690428604,-0.0726087289284275,1.5492011088845878,-6.0344074,3.6601628,0.34057279777777777,-0.8960959697222222,0.999727909375,1.8958238790972222,-0.8783729516581567,2402.8960792100697,2.624070415514235,0.069,85,1204118.3495385493,13,19.954034154315355,0.2098322831149395,4.421875995547335,-7.683533833333333,10.694603,-0.28010686874999996,-3.4942053770833335,4.241927022916666,7.7361324,0.26193479232673994,19577.463919714966,2.1731068409492678,0.026,39,9810746.881189026,13,32.78218086783599
39,running,1.4851521222883366,1.5631865866002166,-2.1727488,5.357236633333333,1.4681343777777778,0.4998195475,2.4882855,1.9884659525,0.08744095658679607,4651.434807690724,3.506628331376446,0.023976023976023976,54,3433088.314082733,0,18.917670564776135,-0.5073739074449262,0.9055548933792432,-2.08439,2.0253925375,-0.70918775,-1.210169675,0.1556323855555555,1.3658020605555554,0.5594713110554861,1077.715375160981,4.278947767651547,0.027972027972027972,49,668368.243242134,0,9.373159467589721,0.03961305334841687,0.6025060043911499,-1.7512913,1.8479229,0.02561125,-0.37449211,0.3712581066666666,0.7457502166666665,0.30111402627687883,364.5842485169684,3.605976250779581,0.055944055944055944,82,183260.5833591275,25,7.725131913389411,0.13282966518080627,2.0237280922638154,-6.507127,4.5098853,0.4038887933333333,-1.4257344516177777,1.5422461212499998,2.9679805728677775,-0.34422360091950216,4113.136755089738,2.733025685120487,0.04095904095904096,67,2067464.4584402484,13,23.8930512327495,-0.057735223236788986,1.4563654901614564,-4.770072333333333,2.9409241875,0.2177161444444444,-0.8709823374999999,0.946813275,1.8177956124999999,-0.6266106271108272,2124.3371302914234,3.2722945487648265,0.07192807192807193,77,1064900.7467346385,13,19.833339074690077,0.22939188992584397,4.987976377904639,-7.6108513,9.581826375,-0.3155789695,-4.240272575,4.968097,9.208369574999999,0.21206225212779117,24932.581606337586,2.3665571969567276,0.025974025974025976,43,12505120.060503323,13,35.78455312709131
40,jumpingjacks,2.7443432384997797,2.5073808339101227,-6.0568166,9.86106568338558,2.955526283446122,2.546691271132418,3.620638,1.0739467288675821,-0.9429044372722818,13825.90987676998,1.8206801167563342,0.017982017982017984,79,10693112.984193707,0,32.38286207477492,-1.831806507950501,1.786370011082545,-7.655203,3.075130186837197,-1.700526,-2.2602625489510486,-1.1442976527197302,1.1159648962313184,-0.5416389448180103,6549.98841414743,2.3693788553468784,0.01998001998001998,68,4959383.935405805,0,22.563661882145183,0.3055045588763649,0.7433885167936628,-1.309382754693561,2.684852,0.1583255326789838,-0.1637469458452192,0.6841862,0.8479331458452192,0.7861992659704702,646.0528554304184,3.8480827728059355,0.04995004995004995,98,370109.35159205756,10,9.250590260119012,0.5662663193372582,2.0590759506151834,-5.9227967,5.48557,0.517861,-0.676035411123506,2.2014055,2.877440911123506,-0.3781285354036537,4560.771972362004,2.6594243811765907,0.058941058941058944,77,2443315.962248254,10,25.057284545443373,0.6915579812004317,1.186392354570729,-2.6064093,5.367787865604597,0.6252206,-0.0961716089311622,1.4888313,1.5850029089311621,0.31703804841223043,1886.2575127872567,2.877936440943211,0.057942057942057944,85,1183676.5973986133,0,19.18066874570199,-0.5585852417812835,8.133881832021993,-10.60435612008176,12.559123070356955,-4.336227,-8.43174321992032,8.133670227707418,16.565413447627737,0.2278742650261471,66472.36314710567,1.778729432471847,0.01898101898101898,69,33425738.66477539,10,70.90066166500146
41,lifting,0.44384522327475845,0.1690529994094384,-0.0958079601558403,0.74705577,0.4644783,0.3760322653793807,0.5403974,0.1643651346206193,-0.9629193656880876,225.77449741537157,-10.028614397383222,0.001998001998001998,55,211696.5241498185,0,2.480790415648156,0.733449072659429,0.17384019987625288,0.1683634799999999,1.0417681,0.6940039,0.6019284179368932,0.8850368505050505,0.2831084325681573,-0.19678551666650912,568.705904820177,-8.437843515369304,0.0,62,554149.2929709429,0,2.932726075291931,0.39308722158843235,0.26208454019303273,-0.043539125,1.369242245945946,0.30953026,0.21208555,0.47460085,0.2625153,1.253945259708541,223.36038754808288,-1.9392508949798668,0.001998001998001998,65,189205.25067843014,0,3.142889216907079,0.5589341306499055,0.9394601191905072,-1.4703526,3.0521882,0.52412236,-0.1106859884601769,1.1594223,1.2701082884601769,0.7047888738983952,1195.305085317213,3.9602000588284976,0.024975024975024976,66,754766.4399700343,0,8.606446188854544,-0.8276308059382566,1.1830685745583975,-3.796817521372031,1.1211331493917829,-0.17333302,-1.4077389,0.0039670566280323,1.4117059566280323,-1.32975591219894,2085.308975796585,3.0410228638064245,0.024975024975024976,51,1386868.8330925084,0,11.797882734073031,-0.36286803653852806,0.3833573191936482,-1.2585043002444989,0.5963571700000001,-0.2519819,-0.6800457000000001,-0.063682705,0.616362995,0.04379212412593318,278.76771933260846,1.7320813597125473,0.02097902097902098,60,205491.5885451811,0,5.050926255072101
42,rowing,0.48820140651865024,0.322660529853474,-0.15336262,1.3010455150327456,0.3782538,0.2285384335030902,0.7605932,0.5320547664969097,0.41259434674090256,342.6887714654397,1.6710827557157888,0.005994005994005994,65,290924.4965654802,0,4.57067926644409,0.7359529328841113,0.19369293739071916,0.13976426,1.2156807,0.7702450149233812,0.618038738357178,0.8743824437453183,0.2563437053881402,-0.564948817336457,579.685300135191,-3.4953269442660906,0.0,76,561487.7499608063,0,4.258628575044264,-0.3658540178286945,0.21061979644247128,-0.9371279,0.1999507,-0.3448372,-0.5216768,-0.22513509,0.29654171000000007,-0.19213878421751718,178.34371017722816,-2.064908936336163,0.013986013986013986,67,156319.5242113447,0,3.809629682014393,0.031463895388367934,0.5821943898566422,-1.5340353,1.4773777,-0.01450805,-0.382952590803324,0.4121286693103448,0.7950812601136688,0.04426725345936675,339.9412742702709,4.076779402145881,0.056943056943056944,61,170636.58660047705,10,8.508604094017747,0.03403897038016463,0.5525943291212223,-2.0659303429508995,1.606881,0.1038224242073141,-0.27947086,0.38896844,0.6684393,-0.39777025582748865,306.5203027329801,3.1579959463248355,0.06393606393606394,64,153993.89650095763,10,9.180538737475484,0.06868785185141105,0.8810841493723157,-1.6659822,3.032335,0.0200587933704356,-0.4841107,0.5000578863492456,0.9841685863492456,0.54374554631692,781.0320172880906,3.7321182294640654,0.03396603396603397,48,393270.2555286724,5,8.851743864607972
43,running,1.538551789523131,0.7979290942259815,-0.5938761,2.8410804,1.814138344308336,1.0265234,2.1132205883851247,1.0866971883851246,-0.9342906708056671,3006.1995900661686,4.048916262780498,0.027972027972027972,65,2690542.024530381,0,11.856138454312513,0.11949774873479926,1.1973863942759464,-1.7442308580464168,2.71470355269962,-0.1636071,-0.9268898760970572,1.1472011,2.0740909760970574,0.4352733032765166,1448.0281688617902,4.476269644745565,0.028971028971028972,49,731892.241343477,15,11.87141770528689,0.09500434562346245,0.36054106522780044,-0.73010355,1.1749467,0.1226246772908997,-0.1580056240848938,0.3621553,0.5201609240848938,-0.07165172062903588,139.0247112286267,2.7667658696220365,0.056943056943056944,98,74103.81115219898,15,5.036879584552353,0.021518732903800394,1.884534342741748,-3.6076174,4.108864078376328,-0.1973100231672598,-1.669292287537994,1.8475344435538388,3.516826731091833,0.06879082963508813,3551.9332078947223,3.5165094034092985,0.03296703296703297,71,1777974.5617715947,15,18.089352928412726,0.014766572026338217,0.8686265192743474,-2.39421146787787,2.0115793,0.08124508,-0.5306892,0.6745114703774098,1.2052006703774096,-0.2728598218383914,754.7302996877268,4.127173087775335,0.07692307692307693,89,377851.75897908694,15,11.591182896531148,0.06873896426162412,4.557987590939476,-8.037765,6.863361463380281,0.0021153191233017,-4.280791,4.702746,8.983537,-0.07825273190336403,20779.980649411213,2.539008204057591,0.029970029970029972,32,10402747.565041924,15,36.29597854683327
44,jumpingjacks,1.2065827940476643,1.6363411397149261,-5.127720914285715,6.6621219285714295,1.4837189654761906,0.4747478575,2.0255743714285717,1.5508265139285717,-0.4940936023526598,4130.776752089889,2.239567529340457,0.028,109,2793311.084005148,0,21.939919928450056,-0.41722834149533333,1.7556393580857863,-4.081386566666667,3.2920081428571426,-0.7702060714285714,-1.4146012857142858,0.9265087599999999,2.3411100457142857,0.25809009274579425,3253.266775051158,3.560474807471517,0.019,66,1713675.0186226354,9,14.465249807519204,0.6255490515665952,1.5402972417045233,-4.246689571428571,5.197468,0.658563373095238,-0.3010171310714286,1.39478959625,1.6958067273214286,0.04616811457905997,2761.454693125627,2.782708664261028,0.038,100,1576383.2338310904,9,18.244195459972985,0.3737351310559048,3.433345130235833,-6.686704828571428,8.372883,0.13230662238095234,-2.510625807142857,3.385060925,5.895686732142857,0.22625543893623562,11915.748872716169,2.4439254833201045,0.031,88,6027727.741466761,9,32.52924932427052,0.10439591497041142,1.8250636727992415,-5.055808285714286,4.1747702,0.02761903367571425,-1.2280575166666667,1.5317213535714287,2.7597788702380956,-0.09007558540034644,3338.4250594241944,3.1063544229502122,0.063,106,1674661.8054532951,9,21.655365440946387,0.2797129582897976,4.609449501955257,-10.61734,9.096475428571429,-0.1819888562857143,-3.9998932785714287,5.040187960714286,9.040081239285715,0.11341776800765993,21304.017025399717,1.99788698753551,0.026,75,10691142.430311061,9,33.852304366655055
45,jumpingjacks,1.3051967778157143,1.7834830030067912,-3.7238190857142857,7.482804333333333,1.51301505,0.2786170732142857,2.28706185,2.0084447767857143,-0.025026394496318053,4881.169439212631,2.4896612676920236,0.038,113,3292364.982449653,0,24.157657194884685,-0.42492339333504764,1.6236353160528407,-4.463675,4.2387843,-0.674960975,-1.4426647428571429,0.5686307439285715,2.0112954867857145,0.4317457825652158,2814.1153380978453,3.0653207091639065,0.024,75,1497338.6650524174,9,15.020434857091773,0.78061882350929,1.5957311115006354,-3.7769884857142855,5.597434471428572,0.8354806724999999,0.0044035676821428255,1.5168963857142859,1.512492818032143,0.0778412288821338,3153.1771700478703,2.822369135719375,0.052,101,1881271.8172276155,0,21.192064776736494,0.38622398969914284,3.566497436807806,-7.223116166666666,11.327638857142857,-0.15551517017857142,-2.623552595238096,3.3400473678571423,5.963599963095238,0.33992161801923976,12856.353033009016,2.0301298614311687,0.04,85,6502766.708600935,9,37.54249197554974,0.06845787644764978,2.143286176787561,-5.6104794,5.350869428571428,0.15230458083333331,-1.4284226821428572,1.6540907535714284,3.0825134357142856,-0.2020683706028322,4593.7684408207515,2.845946839690591,0.066,103,2299231.6458933717,9,25.36370495740067,0.2649349294455,4.724198466030966,-9.327434,9.531050000000002,-0.16971373678571425,-3.9600136678571434,4.904514382142857,8.86452805,0.01769983417218558,22365.923612143175,2.15283832382646,0.024,81,11218065.535904894,9,34.72521141126745
46,jumpingjacks,1.395472682910331,1.667966004905993,-3.2324293666666666,5.387491571428571,1.6122804214285713,0.4891661989285714,2.42090785,1.9317416510714285,-0.3843657816209656,4726.672491677495,3.1373723728796703,0.027,100,3337016.311185339,0,21.063074387914973,-0.8641952805759595,1.1774432449835286,-3.2056139,2.5050547,-1.1748881166666667,-1.7115904964285713,0.19693984250000002,1.9085303389285713,0.42298059178365643,2131.8197055319456,3.6881290125449886,0.025,94,1439327.8736191539,0,12.52030489872877,0.6573933176733333,1.7714491022811707,-4.687948,6.7156182285714285,0.7900047400000001,-0.20427585535714285,1.4619330785714288,1.6662089339285717,0.03991952822204699,3567.059864172345,2.4635199576830726,0.03,94,1999612.9495874369,9,19.39596635730078,0.3782660851184881,4.227528252724553,-8.044909283333334,9.843803,0.15380261214285718,-3.5333949541666665,4.233498753571428,7.766893707738095,0.03580609258507032,17997.208363607595,2.1973772847089883,0.028,71,9070153.071041785,9,36.81001475448883,0.010777168142845227,2.58115228588481,-6.521514428571429,5.873056357142858,-0.0254374261428571,-1.9487336642857143,1.9919510892857144,3.9406847535714284,-0.04771035772125338,6655.800923158632,2.730667507821874,0.064,94,3327960.998082943,9,26.32780088553666,0.23644156853569046,4.244572172750662,-6.881652428571429,9.124225714285714,-1.1464294028571427,-3.250340175,4.5886845874999995,7.839024762499999,0.49673646534193094,18054.281152091196,2.3559879581331717,0.022,77,9055101.968780534,9,33.282115919889826
47,jumpingjacks,1.7795340172975238,2.092065437708283,-4.402929666666666,7.998720685714285,2.0116014035714285,0.8855122000000001,2.797989932142857,1.912477732142857,-0.05520427990952907,7539.102376576959,2.408291886035518,0.023,88,5352923.005208055,0,26.936486635479294,-1.0756691024086429,1.4105247241467351,-4.048391516666666,3.9712987,-1.3235351166666667,-2.0208419875000003,-0.17057942928571423,1.8502625582142862,0.6878858035689163,3144.6544353084096,3.0965810402919933,0.023,78,2150859.8506506095,0,15.035509065862225,0.9329162412328071,1.5046819547014783,-3.406753633333333,6.447553771428572,0.9999604114285714,0.19743421142857134,1.6674524125,1.4700182010714287,0.18036906165977526,3132.1364301754056,2.611155247941342,0.042,98,2001234.63959382,0,19.679069784626297,0.26079282201664283,3.9767490931327867,-9.017872285714288,10.666335166666666,-0.5737928142857143,-3.1239383857142857,4.334070264285714,7.45800865,0.22813645487075812,15866.731712398112,1.967674044791341,0.032,72,7967401.9662947655,10,36.40635467227891,0.4542557402405448,1.9371615902450858,-4.5972366,5.148002714285714,0.23777229690476184,-1.051675355,1.951046175,3.00272153,0.12399338297628026,3955.190709235634,3.040601349481313,0.066,94,2080773.651699158,10,24.64425785101509,0.27706983561271414,5.6465356794826445,-9.041609,11.160942999999998,-0.9984298440476189,-5.034399416666667,5.886647782142857,10.921047198809525,0.3178688696526848,31928.24950829731,2.0200289488354004,0.021,80,16002528.508932656,10,41.95375451799519
48,jumpingjacks,1.6069080592910452,1.6637106345516137,-3.4648058,6.541431271428571,1.8808457785714285,0.8077213571428571,2.577274742857143,1.769553385714286,-0.41804179414275267,5347.318653459126,2.684047826862817,0.023,96,3964736.1048552254,0,22.52222407870221,-0.9683868191483548,1.312553604761837,-3.8952933333333335,2.1763377,-1.2161126333333332,-1.8611773821428572,0.10053540952380947,1.9617127916666668,0.31861915367421967,2658.8471999081876,3.83510558309111,0.024,79,1798310.1157629485,0,13.58058123012027,0.7666043911546523,1.9420234196941082,-4.636106728571429,7.99132,0.7547479042857144,-0.48660142904761905,1.7788793767857143,2.2654808058333336,0.2530438041726604,4355.3658002153525,2.3610832268397384,0.031,93,2471524.968127613,10,21.384379149716374,0.100471237202119,4.597295014386147,-8.880345,10.134566714285713,-0.6185264614285714,-4.020414692857143,4.175555535714286,8.19597022857143,0.2998987061214164,21124.08079735535,2.1194774304711266,0.027,73,10567112.505724056,10,40.757254796434886,-0.07665312986939045,2.884969327813412,-6.355429471428572,6.125270950000001,-0.3664574420238095,-2.45396975,2.347442446428571,4.801412196428571,0.06398771053190558,8320.600676720518,2.783490276752443,0.047,97,4163261.792854011,10,30.891494572003474,0.4723106712382381,4.558692684086547,-8.410196333333333,9.213409,0.22335193261904757,-3.843770917857143,4.695773767857142,8.539544685714285,0.07207727740401153,20983.974679121777,2.2664707182694275,0.024,83,10603538.456809625,10,34.48144266118785
49,lifting,0.02332526692662143,0.5136332731010209,-1.1136625,1.6835957,-0.031213712499999997,-0.4232237392857143,0.45508425857142853,0.8783079978571429,0.16531439072543683,264.0993881744297,3.633630912266004,0.054,132,132321.79322039254,7,5.110581191283878,0.21409950642663975,0.20030031347525667,-0.4635244114285714,0.87456754,0.2310398983333333,0.06430035571428568,0.3692039989880952,0.30490364327380953,-0.24797746238683754,85.91869401483856,-2.17395076161943,0.044,98,65878.65401545799,0,3.083306627730501,0.6769576950162618,0.8981835460328932,-2.4006148285714284,3.475377057142857,0.8077605535714286,0.09512641214285714,1.3483767607142854,1.2532503485714281,-0.4366500897908049,1264.1986695235885,3.125769340310941,0.033,112,861236.1174740772,0,10.489501355881066,-0.02728878062408119,1.6059143193880858,-4.546994333333333,4.2666154,-0.28103337142857143,-1.2521860130952378,1.4038797041666664,2.656065717261904,0.16160704860418948,2577.1265179624324,3.026460319307841,0.047,101,1288935.8205212308,7,15.809282914401157,0.09282639832762382,2.7142976146482214,-5.3508694,5.2036552,-0.6502469074999999,-2.2669705107142857,3.044484589285714,5.3114551,0.15081068125799485,7368.660869570616,2.920698433932134,0.021,95,3688641.8306719526,7,18.81463385626131,0.11782136723365,0.6782932469273881,-1.4657279285714286,2.4803452,0.1014442746428571,-0.41947754309523805,0.6244386223214285,1.0439161654166667,0.260663254127592,473.5035216752779,3.6838115915549685,0.058,91,243692.76266705617,7,8.5338557474057
50,lifting,0.18526566410140452,0.5938974411042481,-1.2273073666666667,1.4609868142857143,0.19035082428571426,-0.2815704036309523,0.6661694691666666,0.947739872797619,-0.07946202341977368,386.6848226745581,4.5739714344040365,0.052,117,210505.78202027956,8,7.190852006063319,0.14369947795423713,0.2037793597052437,-0.7004982,0.8235847,0.14766323,0.010915271749999976,0.2708453325,0.25993006075,-0.062358586809848994,62.134041378757495,-1.6502657333234405,0.06,118,41391.79102412353,0,3.301401518963338,0.7012347300072738,1.0506134037657822,-2.4922055142857142,2.8636427,0.789375325,-0.030639854,1.4950109875,1.5256508414999999,-0.4205503132909932,1594.4148822165243,3.881790742838383,0.033,105,1043073.4176851948,0,12.440052585361054,-0.06192058892445235,2.2827267745749067,-5.1910309,5.112028,-0.1506756596666666,-2.0876796285714287,1.939789085714286,4.027468714285715,0.021605113155558308,5209.464845166546,2.9994135190689764,0.022,92,2606651.802956056,9,20.217637384675452,0.12875330869525287,2.926057995765801,-5.2897844,5.494622116666666,-0.21846515902642855,-2.5388992857142854,3.0442665035714285,5.583165789285713,0.11381689757909602,8569.830993690364,3.022485768646384,0.023,97,4293205.241232396,9,24.611338236593404,0.09882515461071906,1.1255592110294597,-2.5359323,3.013505857142857,0.05301281685714285,-0.8786601578571428,1.036345992857143,1.915006150714286,0.1338735764794441,1275.383065179559,3.798484741566935,0.034,95,642574.8086044823,9,11.434499481032729
51,lifting,0.4924793489087666,0.9894799514386466,-2.4606416,2.7232075714285715,0.5185047625,-0.24855219114285715,1.341718075,1.5902702661428572,-0.21329133678664,1220.6274128263303,3.7892908022397824,0.045,105,731582.5857908077,8,10.791684272802199,0.1822925262547809,0.30515543633732906,-1.1341516,0.8958144842857143,0.1915181432142857,0.018231501608333277,0.38345771357142855,0.3652262119630953,-0.5798930872259088,126.25728561424945,1.4037233401705749,0.06,105,79743.92541233572,0,4.399435812610887,-0.41070820060114804,0.6054871674010416,-2.279423142857143,1.6233365666666668,-0.44288660999999996,-0.814627046845238,-0.056119351625,0.758507695220238,0.22960177331987489,534.9293212184825,3.426124872502687,0.075,111,351805.5236660474,0,10.1974504049618,0.12084575610957733,1.2079750066735477,-3.792685257142857,7.073894871428571,0.11489200396952375,-0.48315837857142857,0.6070076228571428,1.0901660014285715,1.9321233323742983,1472.3481099009055,1.9198743691214069,0.128,101,743477.4972804609,8,18.179830009748645,-0.0843634083082143,2.7850488359648953,-6.754421571428572,4.388784957142858,0.8742533128571428,-2.6511861517857143,2.3645534142857145,5.015739566071429,-0.489428829832554,7755.857706352087,2.874990646933276,0.02,89,3881490.1976464917,8,20.996123389737956,0.22419353990135715,2.31172924852942,-4.662880842857143,4.9409905,0.8823397761904762,-2.034827675,2.041626117857143,4.0764537928571425,-0.34748078821634903,5389.010769721392,3.1183374236836694,0.017,86,2719636.787759846,8,19.166638183933138
52,lifting,0.05860507704810953,0.5955291063788581,-1.6048236142857142,1.8958858142857145,-0.03096979575,-0.4135051792857143,0.4967537464285714,0.9102589257142857,0.5335386352535803,357.73481668367174,3.4213463074805093,0.058,117,180584.7211344831,7,7.036616474955623,0.07510693811960714,0.19988883906644173,-0.4344068714285714,1.1233147142857145,0.07928598657142849,-0.05708031153571427,0.18929458374999997,0.24637489528571424,0.36145411933319,45.556644589049,-1.9354857797159177,0.07,106,25598.848553522057,7,2.9948197588816328,0.7387613741138239,0.8933616217724497,-2.2868451428571426,2.6130880857142857,0.9361354990476192,0.0715200346428571,1.3973452446428571,1.32582521,-0.5376926137908226,1343.0652601511908,3.7263485957685494,0.042,103,944418.069022751,0,11.468819114411717,-0.13148294624721898,1.5022617599211567,-3.1391950166666667,5.400020857142857,-0.31356098285714284,-1.2726493374999999,0.8370789178571428,2.1097282553571426,0.4979860022986315,2271.8213700799392,3.0313893598484056,0.049,91,1144569.7231293155,7,18.209055115986775,-0.10771440819671423,3.2770132014317723,-7.5429382,6.089907185714286,-0.8225058447619047,-2.7314034208333333,3.3041237666666667,6.0355271875,0.09512301882136359,10739.679100568927,2.5745120547056537,0.022,86,5375640.835372977,7,29.422223875228614,0.02041087139813262,0.6064069753707457,-2.9916027,1.688163685714286,0.0288407194285714,-0.3931674771428571,0.4164087516666667,0.8095762288095238,-0.3465079866045499,367.7782940297491,2.8003397320455576,0.109,100,184099.5417531567,22,9.830865063247304
53,lifting,0.09413864495535,0.5674444164858269,-1.4011488,1.8688284,0.06742118314285711,-0.3945591732142857,0.5413491157142857,0.9359082889285714,0.2310042620946645,330.533257109169,3.640560783185453,0.069,123,169697.94984027676,8,7.223506157414957,0.14809917094309394,0.19675219201599767,-0.3863945,0.87898421,0.13523437357142853,0.01455496475,0.27190612000000003,0.25735115525,0.4946491607878367,60.60607807206868,-2.487646584313933,0.072,119,41269.73506343396,0,3.221228479237355,0.7199788064444981,0.9822990371757963,-2.5451484,2.987186533333334,0.8809202691666667,0.00271738332999995,1.4570231464285714,1.4543057630985714,-0.35827263825279176,1482.315968767304,3.5820491006267194,0.044,114,1000343.179058515,0,11.554132895612833,-0.14350095359710713,1.8634234831309626,-4.594291228571429,5.768078,-0.3952399914285714,-1.7249671714285717,1.3551645892857143,3.080131760714286,0.29786565563018047,3489.467254089724,2.7577281928667485,0.034,90,1755031.9313873425,8,19.016751215931368,-0.03456252810483335,3.144331748751105,-7.0807886,6.1237655,-1.021642,-2.6461904,3.1993343071428573,5.845524707142857,0.19884511832618873,9878.129892406974,2.5895681316100205,0.021,98,4939664.163378489,8,25.137161658690584,0.07684314670519049,0.9953925022828215,-3.343625,3.0435464,0.13957860500000002,-0.6560499625,0.80428224875,1.46033221125,-0.10131407911862855,995.7202965628115,3.091903954215346,0.043,92,500812.5924384032,8,11.247042100077595
54,rowing,0.14347940020647143,0.6655278847057765,-1.4986197285714289,1.6706767,0.047886069928571404,-0.39054108464285714,0.7066110083333335,1.0971520929761907,0.0974108982201181,463.0707762392333,4.315849074004379,0.065,113,241828.7300010244,6,7.004532788860018,0.09868814693597497,0.2568971056713292,-0.4058903871428571,1.150790171428571,0.06889556957142856,-0.08226598270119043,0.2366601499999999,0.3189261327011903,1.1134134283180468,75.66947712506038,-0.19939027663643938,0.07,136,42704.42716007179,6,3.004880213402853,-0.8288945211226143,0.46416391902819526,-2.110671866666667,1.4169903285714285,-0.8811653013095239,-1.1205570333333335,-0.6256005378571428,0.4949564954761907,1.392170661877715,902.2988227309735,2.2498871701594827,0.005,122,794682.9574438141,0,9.7078480655061,0.20266514375250239,1.1165403189708711,-1.8985642,7.115607,0.0431883559166666,-0.35541128255952376,0.5531222075,0.9085334900595237,3.034399044633223,1286.4887820959095,1.9313113080298534,0.146,96,663782.7530242415,12,15.796492515749769,-0.11218449867617286,0.911919447000208,-4.8292055,1.7745549142857142,-0.025757393083333302,-0.4856672089285714,0.42981831142857146,0.9154855203571428,-1.6141202267005927,843.3508424825723,2.6280698996000806,0.092,106,427971.59708000266,5,13.295761794149172,0.022452895569976178,0.8356847726989677,-2.0868832,2.2836526,0.036345411,-0.6062658914285715,0.6536429244047619,1.2599088158333334,0.0135693412955872,698.1748028010807,4.020639201583188,0.067,94,349341.1795006505,12,10.419561303265501
55,rowing,0.055465253640166655,0.6699288057352417,-1.5501296857142857,1.8244459,-0.06126809385714285,-0.4583651535714286,0.546363009047619,1.0047281626190476,0.3962066153434624,451.43219451046144,4.016555268298619,0.066,109,227254.53025028153,6,7.328123210772588,0.15522491277283593,0.2597790337166058,-0.4568297885714286,0.94049695,0.14381065857142855,-0.019171550674107123,0.29415207041666663,0.3133236210907738,0.3331023671759332,91.5124347577092,0.4580802769083969,0.041,125,57803.76070043817,0,3.1682565537368603,-0.8204990722885833,0.49760128261696396,-1.9468165285714285,1.5832804857142857,-0.9012662828571428,-1.1176038421428571,-0.659188060357143,0.4584157817857142,1.919202719610868,920.5781570520115,2.158601683571439,0.011,109,796898.4423459019,0,9.538184579276484,0.2250913031193446,1.0120335920442005,-2.041124342857143,5.911016149999999,0.07249448099999994,-0.3383439373214286,0.5884204528571428,0.9267643901785714,2.0959816309400643,1073.8538741744262,2.2292384997673724,0.134,99,562261.8945361252,1,14.243135099105695,-0.15702314022234048,1.0204304923592928,-4.884996333333333,2.678412557142857,0.0111843223238095,-0.66004227,0.5155987178571428,1.1756409878571428,-1.5321205354970537,1064.893377912177,2.458600111142642,0.084,105,544781.974849776,6,13.830030717664208,-0.023149412481200005,0.8137124630076966,-2.2943642714285715,2.148742485714286,0.03227309834523805,-0.5775342635714286,0.5630266414285714,1.140560905,-0.0718875392361978,662.0017397798226,3.871805372837626,0.074,85,331268.8186374967,11,10.687236897742384
56,rowing,0.00229322377359048,0.6110249917829119,-1.6090355428571428,1.6072279,-0.0959862941666666,-0.47306767821428564,0.465039835,0.9381075132142856,0.31704918621934597,372.983447918,3.9847410770488123,0.051,119,186494.35446377154,6,6.378975649507177,0.12831997686887905,0.2670466202915976,-0.4378914,1.1017019714285714,0.09400701,-0.056436222,0.26566843500000004,0.322104657,0.7147028854564663,87.70859997538523,0.4830896920912152,0.051,129,52087.453856314576,0,3.5201075321936943,-0.8219619156314285,0.5418455540454729,-2.25815,1.580458,-0.914248665595238,-1.1255589392857144,-0.65373097125,0.47182796803571436,1.7422576062323658,968.9243985828944,2.255708900349682,0.003,113,822272.9433544478,0,9.849362053792255,0.26458985310407995,1.118311802688746,-1.9499262333333331,6.4941718,0.09315421,-0.4076969110714285,0.6733791076190476,1.0810760186904762,2.3190979049521907,1319.3784571105582,2.291837679967837,0.132,95,694693.3029537543,1,15.699644189471556,-0.10666944175147142,0.8760947230829401,-5.143574,2.287164933333333,-0.012318752858333299,-0.50704685,0.43633401869047617,0.9433808686904762,-2.0233844161909684,778.1527916535302,2.177833005237429,0.095,108,394765.59464778856,6,13.328356434295786,0.015424944910129995,0.8630635569437616,-2.3441265,1.8922520166666663,0.1250709743333333,-0.5854534692857143,0.6956459392857144,1.2810994085714287,-0.3789586668934339,744.3717535465737,4.230513668347447,0.057,96,372305.27019022766,12,10.423100332393059
57,rowing,0.09035851716839526,0.612426420082433,-1.403274342857143,1.6612772142857144,-0.01395116357142855,-0.3864609175,0.5833735321428571,0.9698344496428571,0.21312698535532562,382.8557155198408,4.169308236638535,0.055,110,195510.38215531435,6,6.670151901252732,0.0816713669671249,0.2734993356717624,-0.57015526,0.8220166114285714,0.053631179,-0.12099138607142851,0.2534032860714286,0.3743946721428571,0.4567604149647861,81.39729690856123,0.7958432602646996,0.054,118,44033.759905940715,6,3.343509929451481,-0.8596960757775047,0.47186465843620007,-2.179709085714286,1.3982957857142857,-0.9153474214285714,-1.151241025,-0.6425382117857144,0.5087028132142857,1.3373957615429195,961.5109423324718,2.222243456054922,0.005,113,850297.731367709,0,9.824328897451329,0.18678566032023333,1.1175964553863253,-2.5090551333333333,7.08873,0.050802131,-0.45355409071428565,0.5411815880952382,0.9947356788095238,2.5579779387180874,1282.6616981562522,1.9993162897273618,0.126,97,658776.9577148036,5,16.194471474870102,-0.1088397483455233,0.8833138198458335,-5.5558085,1.7408056285714288,0.00753378241666665,-0.39617807678571426,0.38592456619047616,0.7821026429761904,-2.8076798716184497,791.3091518462236,2.0890562966776116,0.106,107,401579.015871316,6,11.8919083530446,0.05324540943337523,0.858227738673411,-2.3948267,2.3461115,0.0098390037738095,-0.6044797049999999,0.73194772125,1.3364274262499998,0.026001139012329824,738.6533702027759,3.8240554230944186,0.064,91,370744.53775551217,12,10.466736757185561
58,rowing,0.10319796790804,0.627975784022515,-1.574608357142857,1.9617782428571429,0.01724185962499995,-0.35982282285714284,0.6829100321428572,1.0427328550000001,0.06407211394593423,404.6090523137225,3.7126600662036515,0.069,114,207629.67780057524,6,7.401768124536611,0.13242691388161285,0.3133583657297784,-0.5919552842857143,1.2658056,0.09058455124999995,-0.10211397,0.35328716749999994,0.45540113749999994,0.3672627993100393,115.6321594276728,1.813646333591267,0.049,132,66585.17253606368,6,3.724248864796832,-0.864186030669443,0.5157650779964349,-2.611502542857143,1.9489552,-0.9121329071428572,-1.155337460714286,-0.6506259357142857,0.5047115250000002,1.4239335668829476,1012.5650976691951,2.1060272430949794,0.005,116,879691.6845355821,0,10.81267939486689,0.18873374196460238,1.1944571890016809,-2.3196924,7.494332300000001,0.12227126166666664,-0.50076385,0.6412150885714286,1.1419789385714285,2.2470096526578955,1460.9216737374004,2.082111715436727,0.112,95,748273.817891045,2,17.09823516757663,-0.12404830515337809,0.9008959333367833,-5.633647857142857,1.91129015,0.00744651958214285,-0.42576054500000005,0.38295761082142854,0.8087181558214286,-2.0968246554265857,826.1898512314767,2.1835456608974204,0.11,110,420788.9822079522,6,13.282129125233542,-0.0111557573867238,0.9358626288910339,-2.7265167,2.2451182500000004,-0.02188142142857135,-0.7188399375,0.724617555,1.4434574924999999,-0.05546471905996148,875.0874722175537,3.871811838265941,0.066,94,437607.0905282666,12,12.022982950914827
59,running,0.9053199125830647,1.106502131686169,-0.9393332866666668,4.714726414285714,0.6363895119047619,0.03306595510714282,1.5555622571428571,1.5224963020357143,0.8753440802558744,2042.7267645780182,3.535788748571469,0.067,99,1431165.528067392,0,17.337740768954493,0.4218209054969524,0.7846653744911034,-1.193453785714286,2.35192585,0.44963497666666663,-0.2035800448214285,0.9442457438095238,1.1478257886309522,-0.051293010992066165,793.016926489607,4.505108897335413,0.027,76,485474.98606596113,0,8.524800646163083,0.39398047769702144,0.689161745451322,-1.247137285714286,2.9559042000000004,0.279640295,-0.07793028999999997,0.779611055,0.857541345,0.7614228156240261,629.6895842884926,3.4248596155974593,0.093,110,392455.4095212716,0,12.29797244825595,0.25703526122166664,2.2533681554349507,-7.463586500000001,5.879252,0.45599747,-1.1688998357142857,1.8487074607142857,3.0176072964285714,-0.3144904969420188,5138.6575013956735,2.3990635906655817,0.058,76,2602363.9337037243,12,28.927889864781747,-0.3338729414044419,1.7912588985739732,-7.0086067666666665,4.206097971428571,-0.24898570864285713,-1.4302988583333331,0.8936477278571429,2.323946586190476,-0.413274880299979,3316.870974280777,2.585410317517345,0.064,99,1714172.2035411675,12,23.830857350725264,-0.05944270983729524,2.8530485688086578,-5.565480333333333,7.807646066666667,-0.1446399005714285,-2.296305675,1.8397191666666666,4.136024841666667,0.24742836944746016,8135.279685597953,2.604546027616658,0.041,72,4069406.579427272,12,27.302733575891935
60,running,1.069941295423631,1.245213756938291,-1.2935685428571428,4.606962785714286,0.7786212321428572,0.1138099953333333,1.807687117857143,1.6938771225238096,0.7423112666369385,2693.7811188207024,3.666401978425572,0.055,107,1919277.7878605875,0,19.0674384288858,0.4173354936012381,0.8103540174558811,-1.6178586333333334,2.220517285714286,0.6177516095238096,-0.16600053914285706,0.9540699208333332,1.1200704599761901,-0.45919723478599506,830.1858741926686,4.067854014153627,0.026,80,502180.0542065879,0,8.583018340838107,0.4057932157438262,0.7089639320399213,-1.522462457142857,3.247963885714286,0.34725567785714284,-0.10692043728571425,0.7193767053571429,0.8262971426428571,0.9471264152894078,666.7953610202882,3.029920326822243,0.079,99,415732.91414385,0,12.108656999983477,0.49218805727652626,2.254478394595711,-6.447601985714286,6.1064873,0.7113316257142857,-1.1220827785714285,2.218139075,3.3402218535714283,-0.2534073308256388,5319.839242592797,2.557466643413229,0.052,75,2781061.4240244613,12,28.12062147103397,0.0641898439272033,1.442690623162526,-4.685722,3.5149678666666664,0.23135839508333328,-0.8040277249999999,1.1364740297619047,1.9405017547619046,-0.5623829947406526,2083.395213990315,3.0875680610507406,0.057,94,1043762.5606574842,12,19.384901631256934,0.033569024594244094,3.0305675667877043,-6.266267485714286,7.760814385714285,0.17439689142857134,-2.135783885714286,2.2361590749999998,4.371942960714286,0.07391524826257875,9176.28231650089,2.558783206096925,0.028,75,4588709.849490893,12,27.138060061386785
61,running,0.9644907085382738,1.1351106784438612,-1.6278780714285712,4.62331335,0.7092436200000001,0.08875518012499992,1.6553731678571428,1.566617987732143,0.7967165240251669,2217.4301029216267,3.3336942981877247,0.057,94,1573836.3119974202,0,17.638534024920947,0.45195826684319046,0.8548899432806435,-1.5993616333333334,2.499841014285714,0.6095121866666667,-0.14124952928571427,1.0437194,1.1849689292857144,-0.2801621390309259,934.3722532751599,4.1399691326938965,0.026,74,569319.673662198,0,9.101207954049709,0.30960889230662475,0.6113983762143278,-1.0982391714285715,2.870015,0.23663438178571425,-0.119092315,0.6588174820238095,0.7779097970238096,0.6747837536990664,469.2918326584143,3.2719996825195716,0.102,100,282574.9032218345,0,11.037982022377864,0.37671340020081573,2.203912950411162,-5.767467000000001,7.943457533333333,0.4230117442857143,-1.2416488666666665,1.8014104142857141,3.043059280952381,0.22075664090212022,4994.2880465879025,2.3197243030453194,0.061,77,2568103.24636044,12,27.188956565978195,0.04545502304993289,1.4174382501843206,-4.0926766,5.1925073,0.06996382587428565,-0.8259854783928571,0.9165763124999999,1.742561790892857,-0.05593404734778182,2009.1882210129734,2.7399079760132765,0.073,99,1005627.9124759951,12,19.198887174338697,-0.03476791614559047,3.174571758498339,-8.174409333333333,8.96156557142857,0.1668922,-2.1950796,2.1338130535714286,4.328892653571429,0.02184777257182736,10069.036751998488,2.1493559376728597,0.031,76,5035124.110811908,12,28.732355896248922
62,running,1.038861726817362,1.1321284468342758,-0.6748565000000001,4.4945307,0.85675734,0.052419762857142796,1.8621106166666666,1.8096908538095238,0.5843792280810859,2359.66679275721,3.953650940745285,0.04,80,1719460.5197090537,0,17.09815127303016,0.3216449725436357,0.7100880034682173,-1.013526,1.9593521285714288,0.51146275,-0.30841194821428575,0.8472968432142857,1.1557087914285713,-0.28475881559083266,607.1762360594057,4.373028828155809,0.026,83,355315.9666736215,12,7.58435343233246,0.23897544924244524,0.6096717451247416,-1.5306380999999998,2.431788157142857,0.1491016925,-0.21095743,0.6129320875000001,0.8238895175000001,0.5383375648614315,428.4372025072729,3.1934825159684816,0.091,99,242774.85948599147,0,10.224701283853797,0.4524484134282476,1.963971429334812,-7.922230875,5.707807750000001,0.5831409726190476,-0.7208870175000001,1.7998831821428571,2.520770199642857,-0.6561481951809209,4058.036158281919,2.193652433358424,0.044,70,2131372.8716481477,12,23.24397460222097,0.02618508818356429,1.261869334266649,-4.614951133333332,2.5082915,0.10373495714285715,-0.6281037175,1.0120648275000002,1.6401685450000003,-0.7924577926847537,1591.407561388974,3.210825187154768,0.078,93,796046.7583882333,12,17.54703351932238,0.04407617072097625,3.04781881626269,-5.74792,7.26725,0.11081060261904754,-2.5941809821428574,2.4019168196428566,4.996097801785714,0.21948179841721205,9281.853046053562,2.692394186909829,0.025,75,4641898.096232597,12,25.01835443309917
63,running,0.9935619102855093,1.236242414349671,-0.9667724171428572,4.7019615,0.67080134,-0.029849304,1.8951689559523812,1.9250182599523813,0.6564416887181367,2513.9322813002573,3.810040109547175,0.045,81,1750561.904015098,0,20.121068408391835,0.3689244423802857,0.7793708603894185,-1.2724609571428571,2.1712851714285715,0.5107157635714286,-0.32709226,0.87605727,1.2031495300000001,-0.1738071113285453,742.916763271723,4.423778705173891,0.027,68,439511.0114678631,0,10.087171887060473,0.35236736928155926,0.6489504210914084,-1.0991698666666665,4.079745483333333,0.26236287,-0.08378428625,0.69648608875,0.780270375,1.0907780584879592,544.8782753200883,2.633528909561033,0.063,87,334520.5377907523,0,10.996649439812716,0.3773997626622286,2.0750756102511554,-6.2989044,6.927619,0.41690326,-1.0330736119047619,1.9794505875000001,3.012524199404762,-0.2574012776090108,4444.063430328453,2.326406245911366,0.038,75,2293247.2865594137,12,26.408935982474645,0.0025197247073286276,1.5327228270914885,-6.841991257142857,3.130134,0.2079280478571428,-0.854902557142857,1.1574464464285712,2.012349003571428,-0.9720419971130526,2346.8963744352377,2.582161621997246,0.061,100,1173455.8000815166,12,21.66606316099651,-0.043964152144609976,2.9487536113258126,-6.020358,7.104939,0.17396057499999995,-2.7831509571428565,2.4116468714285713,5.194797828571428,-0.040106805504202904,8688.38555912051,2.6561126104027846,0.037,72,4345161.368513413,12,30.026233068187913
64,jumpingjacks,-0.22897742192842951,0.08637512607098641,-0.9723528164530262,-0.082735404,-0.20915705,-0.277005,-0.17742962,0.09957537999999999,-1.8434722910358692,59.82397017220826,-19.09769738953436,0.0,42,56044.99853308993,0,1.8789498522495087,0.8362506667741747,0.06760891271437719,-0.3351405023441292,0.9303462,0.84907514,0.82198477,0.86884385,0.04685907999999994,-7.772310855531699,703.177685650835,-17.63007351224218,0.002002002002002002,38,700195.8773026263,0,3.278374353099886,0.4647320198037624,0.1152074744962503,-0.7417427281096289,0.6733539,0.4842096,0.4058672,0.53131264,0.12544544000000002,-1.8413673234132117,229.00609103609827,-8.740446992999505,0.002002002002002002,42,222160.59972566756,0,3.180150654103545,-0.047955132332486904,0.3019038468460815,-0.9578367,2.418914532880106,-0.005497787,-0.17837265,0.06204913961945295,0.24042178961945293,0.2655904144428995,93.26103589729061,0.5499479871037021,0.04504504504504504,34,47731.43624434016,1,5.267998589422004,-0.09357826562741699,0.3335686490686607,-1.282817,1.1123856,-0.04886922,-0.26206118,0.065973446,0.328034626,-0.44713457059066486,119.79364246024589,0.29409298566120706,0.03303303303303303,33,64206.6177944586,2,5.1666247501340035,0.04434673397568767,0.15368810070511424,-0.42149702,0.6223060173615412,0.014049901,-0.037873644,0.10274101578695065,0.14061465978695065,0.7101192591057648,25.537458415244743,-7.03952700183984,0.03303303303303303,34,13737.311236072053,0,2.492007058789207
65,jumpingjacks,-0.1326015002273032,0.16299624562794138,-0.4424758,0.6399181,-0.07492557,-0.26870704,-0.053936653,0.214770387,0.8253414217470748,44.08021524129554,-11.232403344897234,0.016016016016016016,43,30792.07207800927,0,2.6099344202893358,0.46317384451226845,0.12675199001562343,-0.33460248,0.63186425,0.5095915,0.43808278,0.53131264,0.09322986,-3.155888007870614,230.34941506900964,-16.13866185184784,0.004004004004004004,44,222110.11520187266,0,2.7382405472097973,0.8413960525267514,0.11350550802829694,0.4825012,1.5177921,0.83687234,0.7909895,0.87396896,0.08297946,1.4861014255374925,720.0971032424482,-14.072656755364704,0.0,44,712954.5683298536,0,3.442569121478136,0.03818449766126832,0.39938965923541503,-2.0641136,2.1551325,0.009162978,-0.048258353,0.06336304239755025,0.11162139539755025,1.139599361863479,160.64967351015432,0.9804099072200791,0.055055055055055056,43,80972.08252231007,9,6.018679198023341,0.011954806158290105,0.3289169501520223,-1.2186762,1.6163495,0.01282817,-0.023823744,0.07166866357326554,0.09549240757326555,0.6616628342722108,108.11276185000533,-1.7968453493390344,0.05205205205205205,48,54073.64039328722,4,5.632058311660214,-0.06629220796569012,0.4662145891635986,-2.8942795,0.6530053429937467,-0.0067195175,-0.047647487,0.026267206,0.073914693,-5.083765898882473,221.31159324281447,-0.7919342999517309,0.06306306306306306,45,112738.0767837604,5,7.193946334423576
66,jumpingjacks,0.020854595940292042,0.02539148455791022,-0.07687803,0.08102701,0.017816179,0.008053889,0.038316987,0.030263097999999995,0.14764953029861358,1.0779172907394967,-213.04765534334481,0.036036036036036036,50,755.4420759260541,0,0.42754064640016115,0.6116334276773371,0.023397600254344078,0.555566063789689,0.6984919,0.60819066,0.59745216,0.6245425,0.02709033999999999,0.8805930728709069,374.2677072047428,-238.50394964376622,0.0,51,373620.5362728057,0,1.5368016260416235,0.7745693264151148,0.029462045149985676,0.65065664,0.8276792723928111,0.7817154,0.76389915,0.7919576119626202,0.028058461962620185,-1.6431778268518296,600.2239598619523,-189.029140761336,0.0,56,599191.031000025,0,2.0198103277714465,-0.02082192101186152,0.08038818797534437,-0.3866777,0.2798203253748645,-0.014049901,-0.040927973,0.014285092968895501,0.0552130659688955,-0.8109067860560402,6.88245508665696,-27.4896791847022,0.057057057057057055,51,3654.129177478825,0,1.4276735066916326,0.014891700536137732,0.1136349336612897,-0.4888181883736656,0.33536503,0.004886922,-0.029932396,0.059253927,0.089186323,-0.09484169134342439,13.108613334022447,-13.840242105093775,0.06106106106106106,54,6658.412080909729,4,1.843452950748954,0.006060995261008414,0.10621863436449429,-0.3222932352791938,0.3887356467509382,0.005497787,-0.020297871589908548,0.042760566,0.06305843758990855,0.22356453876516927,11.296532417576021,-21.113207982109554,0.062062062062062065,57,5660.949057060483,4,1.7140910433864787
67,jumpingjacks,0.15103157564309166,0.1447032448430997,-0.6491923,0.8673795,0.22648512,0.0024405725,0.24478942,0.24234884750000002,-0.9194222703676764,43.684877314379506,-6.621099578098412,0.018018018018018018,42,33203.06550757721,0,2.4144069375416337,0.49480767090887,0.18928044189281698,-1.1819692,0.8956901,0.5566312880548462,0.4368625,0.59916055,0.16229805000000003,-4.95436018898171,280.3452280708442,-4.573655663575938,0.006006006006006006,39,262205.04480264237,0,4.252461087665022,0.7956410163829016,0.11853854729435832,-0.034900185,1.1670818,0.77561396,0.7497439,0.8710403,0.12129639999999997,-1.893607166532769,646.4348667441334,-11.284779095171235,0.002002002002002002,42,638783.8013094655,0,3.921651564132414,-0.11285978158296582,0.3426295573322534,-2.4501805,0.52412236,-0.0696842970406382,-0.16615535,-0.004886922,0.16126842800000002,-2.414813389521396,129.88481649923636,0.6305434218482717,0.04104104104104104,41,71233.40002921213,0,6.250737687654127,0.18885920179094373,0.5161427443737222,-0.93401295,2.561358,0.12034045,-0.054367006,0.2816989185219472,0.33606592452194717,1.584510902882342,301.5026562075095,2.380617200662246,0.04804804804804805,40,168398.82586200515,0,8.635592463797224,0.1742421289890623,0.3915115858463996,-0.73975784,1.4495832,0.06841691,-0.021991149,0.27977628,0.301767429,1.4479029518599154,183.3047184033852,0.6373303876321463,0.03803803803803804,39,106710.52146045654,0,5.900744299403518
68,jumpingjacks,0.06388281967255478,0.047358446870056595,-0.18621568,0.11592719,0.082735404,0.07736614,0.08517598,0.0078098399999999984,-2.1676305933135986,6.315270479630922,-116.00756685580602,0.01901901901901902,38,5190.905955091728,0,0.8559908543301349,0.715462740269405,0.011578327684711936,0.6640798,0.77634615,0.71191496,0.7089729903253111,0.7214332,0.01246020967468886,1.9797236042948205,511.50883533772304,-405.99215715909315,0.0,40,510930.4986188485,0,1.6625247836905626,0.6841176828131375,0.019256829717255022,0.51544887,0.7577977,0.6850687,0.68091977,0.6909261,0.010006329999999952,-2.382609750423454,467.9190707734568,-162.13169149283274,0.0,40,467266.29482471425,0,1.751780424148029,0.017825732826657295,0.14438946493418336,-0.93462384,0.92179567,-0.007330383,-0.014660766,0.016493361,0.031154127000000004,2.0473241580695296,21.124059942868364,-5.5166572932416695,0.056056056056056056,33,10710.028718994,27,2.634438478686141,0.05340348308756892,0.2577441706668708,-0.79901177,1.5271631,-0.004276057,-0.014049901,0.019547688,0.033597589,3.665160998668147,69.14827347160589,-5.345505857993983,0.04804804804804805,34,35962.67809596938,1,4.109225616338205,0.023143662059852983,0.10961652901655526,-0.23884831,0.65668017,0.007330383,0.0,0.010995574,0.010995574,3.9519277509014046,12.526845331217164,-27.875982324686245,0.04004004004004004,34,6524.438428434318,0,1.746607836483629
69,lifting,-0.042968121630561074,0.13076949901720394,-0.25284332,0.7050814,-0.012446919,-0.14130914,0.0158014329207819,0.1571105729207819,2.4878517590401303,18.910873766446308,-15.849875731744904,0.021021021021021023,36,10367.265848222556,1,2.01553462134211,0.7830183430919108,0.13721061106338475,-0.0043930304,1.1597601,0.8139309,0.78415596,0.8232051,0.03904914000000004,-3.950243753506478,631.2937061775934,-13.694269639859659,0.004004004004004004,38,621277.2578781525,0,3.9893045104650136,0.6200491722873012,0.1377573502227937,0.0014643435,1.3059504,0.5920829,0.5620638,0.6677406,0.10567680000000002,1.1632806434679512,403.01564844343784,-9.52402814712324,0.0,40,393152.5356790146,0,3.5796417793821913,-0.020681306191872577,0.4293981820711693,-1.7568485,1.6041322,0.018325957,-0.019547688,0.15722113948206168,0.17676882748206169,0.1169488234179373,184.4413218778692,-0.48848945708648384,0.035035035035035036,31,92341.87098832907,2,5.996299090630515,0.03694897338511772,0.7388448692403007,-4.0860777,3.8991528,-0.009773844,-0.11728613,0.021991149,0.139277279,1.8976242455227599,546.1638187286915,1.4229363424334927,0.04704704704704705,34,273490.07622806757,5,11.623940531009547,-0.02910544690636763,0.3126406931846587,-1.6224581,0.6713409,-0.0030543262,-0.08368854,0.0344996014846974,0.1181881414846974,-2.5177835048890573,98.3949945414937,-1.2854336200192762,0.042042042042042045,32,49571.0165898097,3,4.597035562699523
70,lifting,-0.22348009777000638,0.01615866311413799,-0.4413392998797794,-0.1662764271108927,-0.2255089,-0.23380683,-0.21403822,0.019768609999999992,-2.446373344660888,50.10378647754834,-142.39682444309878,0.0,37,49873.68003192088,0,0.8020994240850237,0.7684646563323677,0.011153532452591205,0.6969335070644767,0.8207525355108984,0.7660957,0.7609705,0.7750015347649257,0.014031034764925732,0.1226693927875542,589.4808802582725,-382.2107239539393,0.0,39,588240.0284849572,0,1.7527395085354747,0.5762643117431107,0.020622572533287017,0.4999763372482184,0.6635916,0.5747548,0.56011134,0.58939826,0.029286919999999994,0.40056414754794073,331.8404105011806,-219.22986377716063,0.0,36,330965.1555282812,0,1.5194201144378043,0.01614167923529747,0.08227664302146513,-0.4904667656496283,0.59742624,0.015637774592416498,-0.02076942,0.042760566,0.063529986,1.5117544543297616,7.009170349839124,-18.108631806549354,0.04408817635270541,32,3627.3552439540213,4,1.4700434580839519,-0.14617715103019152,0.2939062638783093,-1.4263704,0.40500367,-0.008552114,-0.5766568,0.023210487737893727,0.5998672877378937,-1.3588452597952043,107.4467732354025,-4.529786203351351,0.04909819639278557,33,64257.19365600439,0,3.8171932566799907,0.009191764936482697,0.09455106650837072,-0.71959925,0.18387043,0.015882496,0.0012217305,0.05375614,0.052534409500000004,-5.196558328167257,8.99740403089899,-24.66921002398787,0.04008016032064128,31,4531.8425295162015,8,1.443546411534984
71,lifting,0.14689225750593088,0.025030709228676,0.017572122,0.2135501,0.14960709,0.14228538,0.15375607,0.011470690000000006,-0.9888504325854786,22.181041311555067,-197.01825377328404,0.0,23,21846.53124606857,0,0.7042929675888524,0.6939961376271758,0.03684293279556365,0.5320448,0.73778504,0.70288485,0.70020026,0.7084982,0.008297939999999948,-3.1687367583251516,482.50369529598095,-207.9492589943937,0.0,21,481344.5254973396,0,1.9571540792322317,0.6981177892959575,0.043372248663640554,0.6262509,0.8920292,0.6823841,0.6801876,0.6889736,0.00878599999999996,2.751275235161925,488.7584689339757,-130.41940763091625,0.0,27,487331.9543347508,0,2.1201846834752742,0.023314123044801707,0.10161612765733714,-0.3231477,0.9737192,0.023823744,-0.0018325958,0.023823744,0.0256563398,6.64914879190043,10.848190510286905,-17.987813911287475,0.04804804804804805,28,5689.902050003204,0,1.908559343544049,-0.012437897460246696,0.1262073700638795,-0.44715336,1.0201449,-0.019547688,-0.026267206,-0.00033004006881226175,0.02593716593118774,3.7055138127989973,16.050990249862522,-10.231326500987052,0.036036036036036036,28,8094.665652479553,1,2.180636888662779,0.017535573693663927,0.04474440395890095,-0.081855945,0.27000242,0.015882496,0.0012217305,0.015882496,0.014660765499999999,4.208763363905893,2.3052464106871886,-104.06263347754165,0.04004004004004004,25,1304.9114119246165,0,0.7779889913771088
72,lifting,0.043086732123481866,0.46238711975315977,-0.8998391,1.0987457,0.0666836710433704,-0.37706846,0.24649782,0.62356628,0.38653296654208164,215.2288548351913,3.37958976171044,0.03903903903903904,54,108433.19069446655,5,6.876118012837433,0.4648177623908628,0.2646523779091724,-0.5176454,1.23339614359116,0.5142286,0.2975058,0.6760386,0.37853280000000006,-1.1680579395033157,285.740296052528,-0.2619270076062857,0.012012012012012012,55,250539.10647080408,0,4.919624370080489,0.47024681971275895,0.6720969788100563,-1.7823502,1.7788726969055522,0.6357691,0.35135174159100746,0.7909895,0.43963775840899255,-1.2941940316699083,671.7218596062679,2.926553203388191,0.021021021021021023,58,445870.08309289865,0,10.823622846441133,0.07242733289874302,1.4367161498204988,-3.040887,4.230242,-0.012217305,-0.7507595792719874,0.8254613453245725,1.57622092459656,0.18545085009653964,2065.2654613970026,3.0431241807397944,0.03803803803803804,39,1034217.7141475236,4,21.970180417825976,0.15330490722299123,2.328929242381755,-5.1037793,4.5130725,-0.01160644,-1.6126842,1.5015068,3.114191,0.024602633285173793,5436.5424853728855,3.0693953912447287,0.03403403403403404,41,2727280.6780896997,4,32.10786536223794,-0.04405677140529773,1.1039587190351685,-3.0921998,2.5619688,-0.026267206,-0.8912524,0.5174029,1.4086553,0.14313655730972755,1218.2264617346548,3.3843991043674557,0.04604604604604605,41,609472.6771611824,4,16.64619796587895
73,lifting,-0.021664461894120374,0.32268776263369975,-0.4087959,0.6382097,-0.098243786643284,-0.30214286,0.10836142,0.41050428,0.846719452417826,104.3880169294885,-3.226820841561813,0.04104104104104104,51,52376.019796625704,1,5.090775846218972,0.7717648669486633,0.10897879189776347,0.4249037,1.1787965,0.7568215,0.7157666068076718,0.8551766,0.13940999319232816,-0.2077504281838146,606.8780131757608,-17.229352354949285,0.0,51,600350.7493100849,0,2.978238704962418,0.497758330425046,0.20688065107394296,0.0930509938783698,1.568556,0.5298483,0.37413976,0.5987300691504398,0.22459030915043982,1.0590329468802908,290.2295967332227,-3.3648221195229295,0.0,51,268603.7218481796,0,4.178594907341127,-0.09031735563077022,0.431970368276191,-2.2180517,0.6627888,0.007941248,-0.059559362500000004,0.0580322,0.1175915625,-2.7514361061735397,194.3742697739376,-0.12567257840698942,0.06706706706706707,53,101160.40697003357,3,7.508402510544477,-0.14241617346353444,0.5890440999878288,-3.1380148,3.4263432,-0.023823744,-0.16982053,0.018325957,0.188146487,-0.16594832810856414,366.54108992454184,1.1459600212951355,0.055055055055055056,47,193208.18542402564,0,10.13802067914833,-0.1541247122727426,0.3884788812997505,-1.6212363,0.79534656,-0.017104227,-0.13622294,0.01160644,0.14782937999999998,-1.7337092582632794,174.34468203969638,-0.8954536143610259,0.05205205205205205,47,98938.63959568649,0,5.791329390850285
74,rowing,0.020434330671950954,0.08509118064007241,-0.32996538,0.234539,0.054424766,-0.010982576,0.06833603,0.07931860600000001,-1.247469662126409,7.643172312816617,-30.36662916738272,0.04504504504504504,50,4026.1281521681435,1,1.3601758620728355,0.30746669137247407,0.08232633406899666,-0.0976229,0.63332856,0.29921418,0.2831064,0.33826336,0.05515696000000003,-0.6636981844646994,101.20530056791023,-28.65438145293455,0.008008008008008008,47,97725.44228701883,0,2.1992792259011216,0.9269054302054929,0.06915850582869101,0.6157564,1.2339534,0.9376679,0.9117157653781149,0.9624830282530559,0.05076726287494093,-0.40269247582539613,863.0678559984854,-34.2544944641578,0.0,50,859820.508243752,0,3.294657947260098,0.025909111907995233,0.28580760476658007,-0.9053023,1.4172074,-0.0012217305,-0.06658431,0.051923547,0.118507857,2.004909990112345,82.193225766306,-1.1265894710464486,0.07507507507507508,49,41390.486363761534,1,4.647544977646807,-0.02893716943589087,0.4278054483859653,-2.2363777,1.5540411,-0.010995574,-0.05375614,0.041950957109075745,0.09570709710907574,-1.3273180223671857,183.4879890805659,0.6200749775499151,0.062062062062062065,46,92070.09349212832,7,7.09784226771098,-0.09193427862638665,0.36259936736748094,-2.031127,0.46975538,0.012217305,-0.15760323,0.0765090124441525,0.23411224244415252,-2.5221517887202034,139.65880428783433,-0.6968299263028778,0.04804804804804805,44,73977.08084941954,1,5.863766602851251
75,rowing,0.03580956956471859,0.15880711619247673,-0.20793676,1.168302,0.016351834,0.010738519,0.02391761,0.013179090999999999,6.013085725025033,26.450303700202067,-17.850475120144512,0.012012012012012012,37,13851.807650346369,0,2.986189626233448,0.5282612472537862,0.23372773462730953,-1.104115,0.614048,0.5688974,0.5618198,0.57377857,0.011958770000000007,-6.617304829995795,333.30028203092184,-12.979536063760008,0.004004004004004004,36,305734.54313413077,0,4.709190406772433,0.7736647482767328,0.19422815730493712,-0.37072295,0.8956901,0.8107582,0.79513854,0.82076454,0.025626000000000038,-4.9650004959162715,635.6077135192652,-20.32076793197295,0.003003003003003003,36,616166.3664017683,0,4.717351016332629,0.005185934220713418,0.05771821917959896,-0.47769663,0.2779437,0.00061086525,-0.015271631,0.032986723,0.048258354,-1.8098083126460847,3.351597059441522,-32.989050146901306,0.037037037037037035,34,1687.542807595039,14,1.0518481562083681,-0.017806997719946916,0.22087553236677515,-1.5815301,0.5002986,-0.004276057,-0.018936822,0.0135089615961274,0.0324457835961274,-5.741933196349991,49.00520087534013,-8.456901827316251,0.03203203203203203,36,24636.325490508265,2,3.781851945303072,-0.016993337356319072,0.16435146205398649,-2.1697934,0.18997909,-0.004886922,-0.0190551893318895,0.0012217305,0.0202769198318895,-11.975876304240987,27.245865014115566,-7.847284672137155,0.031031031031031032,33,13753.40770267581,4,3.258084936945851
76,rowing,0.23499707528545277,0.037124981330747445,0.1432616,0.5427833,0.2421048,0.22672918,0.24991462,0.02318544,1.9261737524349123,56.54390947765475,-82.0892111649739,0.0,38,55800.29946686691,0,1.10679420152898,0.6121777865301106,0.028968535953263735,0.33191785,0.7415071044263423,0.60941094,0.6045298,0.6286915,0.024161699999999953,-3.997905991228287,375.2243784017096,-82.02325501877937,0.0,38,374430.8239106071,0,1.755147643801711,0.7349192159989654,0.1062802835599335,-0.57329047,0.91619086,0.7489890852949617,0.7165521,0.7687803,0.05222819999999995,-8.938320829742205,550.8390554667221,-12.205762783969115,0.002002002002002002,43,544657.3990269771,0,3.666209897043038,-0.012987260492276241,0.18457464647312288,-0.44348818,1.3475688,0.0013412142640371,-0.05131268,0.026267206,0.077579886,3.5724000787459365,34.16816478659608,-6.489311119169936,0.04804804804804805,35,17151.16419385124,1,2.893195059704592,-0.02248429612585066,0.19923442814305858,-1.8460348,0.25045475,0.004886922,-0.026371120442906702,0.017715093,0.0440862134429067,-7.765306044279389,40.120006671479295,-6.660718563091544,0.056056056056056056,36,20292.209827740884,8,3.496261007612583,-0.014040473420856283,0.08228810101571733,-0.7031059,0.05131268,0.002443461,-0.009162978,0.010995574,0.020158552,-6.336152776499065,6.954726664623248,-38.8771794513341,0.05405405405405406,41,3572.256379593763,1,1.365401576722256
77,rowing,-0.20182046131908382,0.059615211844585375,-0.32606047,-0.09298581,-0.22477673,-0.24723,-0.13960074,0.10762926,0.4075046378206583,44.23763264474901,-111.75442199578025,0.0,40,42421.73567671829,0,1.0394030543775599,0.3329581696025418,0.04638334254456565,0.21281794,0.43027294,0.3192269,0.30409533,0.38707477,0.08297944000000002,0.1257443995762798,112.89739319904525,-131.0290234199019,0.0,39,111712.01354332687,0,1.1935038652208916,0.9025155638725254,0.06577171659152696,0.6125837,1.2366381,0.90374404,0.871650475,0.9373885575199702,0.06573808251997015,-0.032069095055885434,818.0370755550998,-31.202655287682123,0.0,39,815062.5636799827,0,2.9695573974775233,-0.06694286224810272,0.14459165661557866,-0.5260632523526546,0.31337386,-0.0366924968177506,-0.1423316,0.01466778437788415,0.15699938437788416,-0.6639744119614686,25.34179912767423,-11.706891815367895,0.04604604604604605,36,14894.422961124941,0,2.3841183502352377,0.0379997087142159,0.23692994099355758,-0.68844515,1.6493362,0.009162978,-0.030543262,0.1112174761801432,0.1417607381801432,3.0625270589409213,57.46605922983515,-2.065864214508683,0.06006006006006006,37,29424.84226061185,9,4.232797724153936,-0.04829916447664712,0.11993733732730756,-0.4156542995487909,0.24801129,-0.02687807,-0.07696902,0.017715093,0.094684113,-0.8233873024650298,16.6866714352471,-20.16786601656975,0.028028028028028028,34,9499.065383592537,0,1.437031862855208
78,rowing,-0.017175116510860972,0.03819847168700101,-0.16058967,0.107629254,-0.0282481534310515,-0.037584815,0.0056133163,0.0431981313,0.16972761313904566,1.7491405274122753,-109.4107652763437,0.023046092184368736,39,1019.7240576909835,0,0.5681176870811809,0.35105662242634283,0.05913888078954306,0.07614586,0.50544256,0.3774232975924951,0.31678632,0.39146784,0.07468152,-1.1500166476066294,126.4811856444697,-54.99000509143481,0.0,37,124488.25275308207,0,1.5457947681989284,0.9170019755314374,0.06363909766622189,0.7687803,1.0677505,0.9200958,0.87396896,0.9584128,0.08444383999999994,0.12694615767871012,843.2486228298174,-68.8771471729431,0.0,36,839547.2988308005,0,2.7831832294614895,0.002425454371386399,0.324725385224565,-0.9431759,0.6792821,0.026267206,-0.16676621,0.23457226,0.40133847,-0.882002255596109,105.13610714506427,1.131556640976011,0.03807615230460922,37,52465.8494188599,1,4.508210012211645,-0.08002477870596202,0.17338717290376982,-0.5137377,0.30176744,-0.03945749580055355,-0.17992586227887064,0.0338995694973865,0.21382543177625712,-0.5709531346203329,36.36407966890341,-8.845970575597043,0.041082164328657314,37,21334.977060179197,0,2.7734574170836805,-0.04449878571556344,0.12308746097960044,-0.61086524,0.3720296187455216,-0.03848451,-0.1043538686346711,0.014660766,0.1190146346346711,-0.6082108530559156,17.08125312755276,-11.319154988156242,0.041082164328657314,39,9509.661073648149,0,2.0500232180396853
79,running,0.451055740113713,0.27710490331802456,-0.45809543,0.7084982,0.60770255,0.24186075,0.60770255,0.36584179999999994,-1.5449772191025186,279.8813825968458,-12.70189852143254,0.012012012012012012,19,241323.04139683992,0,3.787525291582386,0.5269244788737616,0.13703930229760927,-0.0102504045,0.78659654,0.575487,0.55620646,0.575487,0.019280540000000013,-2.705769812761577,296.11396786341595,-28.19918681138127,0.004004004004004004,19,286456.1195842359,0,3.057553576533549,0.6439040051654701,0.15893568468588767,0.25601605,1.343047,0.59061855,0.59061855,0.59061855,0.0,2.501534588228968,439.40778626310436,-13.94749973829243,0.0,19,426375.96811080334,0,3.542331017054296,-0.031438025087628226,0.36492984174038395,-1.3231341,1.9474384,-0.13622294,-0.13622294,-0.035430185,0.10079275499999998,2.0422567448496096,133.89480288586526,0.08504950321642549,0.01901901901901902,18,67373.64089694817,1,5.947113734716927,-0.13521957850742844,1.087665703241724,-5.6694403,3.7739255,-0.04642576,-0.04642576,-0.04642576,0.0,-1.4021092927296603,1198.9166987216126,1.2216591540956945,0.022022022022022022,16,607982.7830250644,12,14.931529832308964,0.03681459134008537,0.43639571904264124,-1.1667526,3.6884043,0.015882496,-0.002443461,0.015882496,0.018325957,4.509420840451215,191.41429997294833,0.29486726167713107,0.01701701701701702,15,96287.74526777798,9,6.892878874019069
