id,timestamp,acc_x,acc_y,acc_z,gyro_x,gyro_y,gyro_z
0,1778416191.0892649,1.1224436,0.26403978,0.72059083,0.4167628,0.36010507,-0.23548855
1,1778416191.0995972,1.1366518,0.26849127,0.73894554,0.3417791,0.49189925,-0.29092458
2,1778416191.1096969,1.144518,0.29818815,0.7363235,0.21303925,0.67103547,-0.40439278
3,1778416191.1198003,1.1601896,0.27580878,0.7577881,0.12156218,0.82711154,-0.54519725
4,1778416191.1299105,1.150311,0.21342708,0.7533366,0.12156218,0.82711154,-0.54519725
5,1778416191.1401484,1.150311,0.21342708,0.7533366,0.12156218,0.82711154,-0.54519725
6,1778416191.150271,1.150311,0.21342708,0.7533366,0.12156218,0.82711154,-0.54519725
7,1778416191.1603842,1.1453106,0.052807957,0.88127095,0.31413746,1.144456,-0.52580225
8,1778416191.1704974,1.1525673,0.04969802,0.7820578,0.57818395,1.4892895,-0.28206703
9,1778416191.1806283,1.0807338,0.1454963,0.63095146,1.1183416,1.3162619,-0.14340061
10,1778416191.1907387,1.0609156,0.19360885,0.5528981,1.404532,1.0711522,-0.13194689
11,1778416191.200863,1.0609156,0.19360885,0.5528981,1.404532,1.0711522,-0.13194689
12,1778416191.2109652,0.992253,0.23184279,0.6366225,1.5957327,0.7359399,-0.23335053
13,1778416191.2210763,0.9597511,0.2528806,0.65119654,1.5957327,0.7359399,-0.23335053
14,1778416191.2313445,0.91621196,0.27818695,0.6132675,1.3920091,0.9120218,-0.20295998
15,1778416191.2414963,0.91621196,0.27818695,0.6132675,1.3920091,0.9120218,-0.20295998
16,1778416191.2516215,0.84462243,0.36721656,0.50161463,1.1336132,1.0616838,-0.16340645
17,1778416191.2617438,0.84462243,0.36721656,0.50161463,1.1336132,1.0616838,-0.16340645
18,1778416191.271873,0.8113888,0.4168536,0.46252698,1.0204504,1.0297661,-0.19043724
19,1778416191.2819793,0.784375,0.4730154,0.49630946,0.7874053,0.904386,-0.3633121
20,1778416191.2920797,0.7716304,0.48515025,0.48075974,0.733191,0.8926268,-0.4447099
21,1778416191.3022885,0.71504176,0.51393247,0.4603317,0.6737844,0.7987063,-0.5128214
22,1778416191.3124185,0.65412354,0.5373484,0.44679436,0.63148195,0.70371675,-0.56138515
23,1778416191.3225226,0.6330857,0.5490564,0.43319598,0.61437774,0.52290064,-0.58352906
24,1778416191.3326323,0.6461353,0.5564349,0.49539477,0.5882632,0.42058071,-0.5896377
25,1778416191.3427331,0.66436803,0.56869173,0.5283235,0.53969944,0.45448375,-0.61468315
26,1778416191.352837,0.68400335,0.59747386,0.54801977,0.43768495,0.52503866,-0.6614143
27,1778416191.3629682,0.68400335,0.59747386,0.54801977,0.43768495,0.52503866,-0.6614143
28,1778416191.373076,0.6794299,0.6165604,0.59412,-0.07070765,0.9137017,-0.8979719
29,1778416191.383222,0.6771737,0.5862537,0.5441781,-0.30955598,1.1139128,-1.0065532
30,1778416191.3933394,0.59979105,0.5740579,0.48472342,-0.4428773,1.2038627,-1.0528263
31,1778416191.403563,0.5205182,0.5817413,0.4212441,-0.41996986,1.1556044,-1.0372492
32,1778416191.4136806,0.47100312,0.5617401,0.37776592,-0.29703322,0.96791595,-1.00075
33,1778416191.4239268,0.42776886,0.5431415,0.3259946,-0.15103643,0.75976366,-0.9634872
34,1778416191.4340475,0.45588025,0.5147861,0.30513975,0.044135015,0.39202276,-0.883922
35,1778416191.444177,0.47758886,0.5207011,0.34733734,0.17684549,0.12232576,-0.798859
36,1778416191.4542832,0.4877114,0.54326344,0.41526812,0.3016147,-0.07009678,-0.7086037
37,1778416191.4643831,0.49185795,0.5603985,0.45118487,0.3491095,-0.12095132,-0.6577492
38,1778416191.4745047,0.49185795,0.5603985,0.45118487,0.3491095,-0.12095132,-0.6577492
39,1778416191.4846084,0.4425258,0.63851285,0.48393068,0.32574388,-0.0025961774,-0.63529986
40,1778416191.4947188,0.41971964,0.62832934,0.51039565,0.24877487,0.13041973,-0.65270954
41,1778416191.504842,0.38392484,0.6102795,0.479967,0.10705414,0.34116822,-0.627664
42,1778416191.5149453,0.34666657,0.60582805,0.44508693,-0.03634648,0.4118759,-0.5748242
43,1778416191.5250494,0.29343176,0.59997404,0.4297812,-0.20906863,0.4092797,-0.49968776
44,1778416191.535258,0.25867364,0.57363105,0.40526757,-0.28863382,0.35063666,-0.40591997
45,1778416191.5453882,0.25080732,0.585339,0.39599872,-0.2649628,0.25518894,-0.29733866
46,1778416191.5554929,0.2552588,0.60143757,0.39734024,-0.16508633,0.14126259,-0.18845193
47,1778416191.565601,0.2505634,0.6258292,0.4200855,0.02367103,0.05589417,-0.06078109
48,1778416191.5757217,0.254588,0.66436803,0.4246589,0.2003638,0.042913284,0.019394971
49,1778416191.5858352,0.24135554,0.70333374,0.40356013,0.2817616,0.027947085,0.04550946
50,1778416191.5959682,0.254649,0.7238227,0.41118255,0.24495697,-0.02611449,0.0421497
51,1778416191.606133,0.27379647,0.740409,0.43923298,0.089491755,-0.03848451,0.026572637
52,1778416191.616258,0.2992248,0.74236035,0.44594067,-0.053603426,-0.008857546,0.01817324
53,1778416191.6263835,0.31599405,0.7765087,0.47142997,-0.23426682,0.007941248,0.012675454
54,1778416191.6365047,0.3233725,0.79553425,0.47618634,-0.2941316,0.00580322,-0.023365596
55,1778416191.6466208,0.33593425,0.7618737,0.47191778,-0.24709499,0.0067195175,-0.061850104
56,1778416191.6567228,0.36258212,0.6921136,0.46789315,-0.10888673,-0.007330383,-0.06566802
57,1778416191.6668437,0.3927668,0.65509915,0.47673512,0.0290161,0.04260785,-0.009468411
58,1778416191.6769736,0.39770615,0.69699186,0.47502774,0.14874569,0.22770002,0.09972375
59,1778416191.6871037,0.32879966,0.8192551,0.39282778,0.16142114,0.41218132,0.16600263
60,1778416191.6973019,0.29818815,0.93456674,0.27062553,0.027183503,0.28985557,0.14630222
61,1778416191.707426,0.33465368,1.0031683,0.2277572,-0.16401732,0.0364992,0.09896017
62,1778416191.7175298,0.37807086,1.1109184,0.28288236,-0.49663344,-0.3115413,-0.07192938
63,1778416191.7277627,0.37813184,1.0999422,0.38368094,-0.86926126,-0.5882632,-0.4185954
64,1778416191.737882,0.34782517,0.94944566,0.43478146,-1.105666,-0.82344633,-0.75670934
65,1778416191.748035,0.36337486,0.78626543,0.48484537,-1.0752755,-1.0624474,-0.8503244
66,1778416191.758152,0.38746163,0.6494281,0.57363105,-0.82512623,-1.1759156,-0.7698429
67,1778416191.7683308,0.40709692,0.57106996,0.62802446,-0.3407101,-1.0639745,-0.551764
68,1778416191.778485,0.41520718,0.6222924,0.66412413,0.1020145,-0.7877107,-0.34788775
69,1778416191.788744,0.40788963,0.7099805,0.6363786,0.3184135,-0.4427246,-0.25411993
70,1778416191.7988582,0.40788963,0.7099805,0.6363786,0.3184135,-0.4427246,-0.25411993
71,1778416191.8090148,0.33343408,0.81266934,0.52222556,0.13805555,-0.12568553,-0.28603765
72,1778416191.819271,0.27849188,0.82669455,0.4610635,-0.22113322,-0.08277224,-0.31673363
73,1778416191.8297596,0.2374529,0.80333954,0.44484302,-0.46089783,-0.11636983,-0.25686884
74,1778416191.83987,0.2581858,0.7666911,0.42551264,-0.5308419,-0.27275133,-0.12415836
75,1778416191.8499746,0.28440684,0.83212173,0.47027132,-0.26160303,-0.5708536,0.1601994
76,1778416191.8602357,0.28440684,0.83212173,0.47027132,-0.26160303,-0.5708536,0.1601994
77,1778416191.8704152,0.29270002,0.8965767,0.5321042,-0.09208794,-0.5874997,0.14385876
78,1778416191.8805532,0.2775162,0.98145974,0.57106996,0.07971791,-0.4147775,0.0016798794
79,1778416191.8906543,0.22952558,0.9989607,0.52149385,0.10140363,-0.17486018,-0.16707164
80,1778416191.9007576,0.1709246,0.8807221,0.3755097,-0.24831672,0.018784106,-0.18784106
81,1778416191.910855,0.14574021,0.86407477,0.32416525,-0.46761733,-0.0041233404,-0.021685716
82,1778416191.9209774,0.11897036,0.90304047,0.30696914,-0.59040123,-0.09987647,0.12140947
83,1778416191.931147,0.113299295,0.95426303,0.32471406,-0.59040123,-0.09987647,0.12140947
84,1778416191.9412718,0.113299295,0.95426303,0.32471406,-0.571159,-0.2182316,0.18096884
85,1778416191.9513767,0.17104656,0.998351,0.43856218,-0.43371433,-0.3539964,0.18066339
86,1778416191.9614677,0.1887915,1.0134737,0.47295445,-0.4071417,-0.33124167,0.14859296
87,1778416191.971801,0.1887915,1.0134737,0.47295445,-0.4071417,-0.33124167,0.14859296
88,1778416191.9819212,0.20068243,0.99017966,0.50996876,-0.42836925,-0.22266038,0.026572637
89,1778416191.9920418,0.19763349,0.9355424,0.509359,-0.45005497,-0.1779145,0.017104227
90,1778416192.0021567,0.193182,0.8970645,0.51692045,-0.45662177,-0.14889841,0.063682705
91,1778416192.0122707,0.19653587,0.8698068,0.51948154,-0.42058071,-0.13698652,0.15012014
92,1778416192.0223858,0.21757366,0.8595624,0.5306407,-0.32513303,-0.1339322,0.22388211
93,1778416192.0325358,0.23324533,0.8639529,0.54466593,-0.25809056,-0.12583824,0.25625798
94,1778416192.0426693,0.25660032,0.86736774,0.54308045,-0.19975294,-0.12492194,0.26908615
95,1778416192.052832,0.25660032,0.86736774,0.54308045,-0.19379699,-0.13225232,0.25320363
96,1778416192.0630968,0.28105298,0.88047814,0.55167854,-0.19379699,-0.13225232,0.25320363
97,1778416192.0733252,0.30056632,0.8829174,0.5506419,-0.21975878,-0.14294247,0.21670444
98,1778416192.0836196,0.3547768,0.8468787,0.5832657,-0.32895094,-0.15928312,0.107665
99,1778416192.0937312,0.37038746,0.80986434,0.5989374,-0.3266602,-0.16279559,0.09911288
100,1778416192.1039617,0.37191194,0.78699714,0.61515784,-0.2826779,-0.15592335,0.124311075
101,1778416192.1141593,0.3606918,0.7777283,0.6269268,-0.22525656,-0.13561209,0.14950927
102,1778416192.1242929,0.35867947,0.7616298,0.6158286,-0.15928312,-0.12629639,0.19532417
103,1778416192.1344078,0.36154547,0.75772715,0.6032059,-0.11255192,-0.118202426,0.25473082
104,1778416192.1445272,0.360021,0.766935,0.59296143,-0.091477074,-0.116980694,0.29245174
105,1778416192.1546962,0.3586185,0.76943517,0.5982666,-0.09010262,-0.11591168,0.31337386
106,1778416192.164817,0.34934965,0.7796187,0.5943639,-0.092240654,-0.1001819,0.3231477
107,1778416192.1749504,0.34934965,0.7796187,0.5943639,-0.092240654,-0.1001819,0.3231477
108,1778416192.1851246,0.32129923,0.7498608,0.5567398,-0.10048734,-0.09285152,0.3538437
109,1778416192.1954117,0.33373898,0.720042,0.5271649,-0.08689558,-0.13515393,0.40133846
110,1778416192.2055783,0.3492277,0.71467584,0.51204205,-0.04642576,-0.21609358,0.49388456
111,1778416192.2157073,0.35758185,0.7487632,0.50795645,0.04016439,-0.26725355,0.56382865
112,1778416192.2258158,0.35715497,0.7780332,0.5175302,0.12644911,-0.27366763,0.581391
113,1778416192.2359426,0.3420931,0.7809602,0.5146032,0.17150041,-0.24266621,0.58093286
114,1778416192.2460742,0.33849534,0.76388603,0.49624845,0.16691893,-0.20647246,0.59330285
115,1778416192.256296,0.3480691,0.7369942,0.46911272,0.12599096,-0.2098322,0.6267477
116,1778416192.2664325,0.34654462,0.7379699,0.4589292,0.06307184,-0.2733622,0.66889745
117,1778416192.27667,0.34654462,0.7379699,0.4589292,0.06307184,-0.2733622,0.66889745
118,1778416192.2871482,0.34654462,0.7379699,0.4589292,0.06307184,-0.2733622,0.66889745
119,1778416192.2972674,0.37953433,0.7623616,0.5053344,0.09239337,-0.7667886,0.6200282
120,1778416192.3075078,0.4036211,0.734677,0.55308104,0.24236079,-0.8194757,0.6062838
121,1778416192.3177385,0.40203565,0.7190664,0.535702,0.44868052,-0.84116143,0.6273586
122,1778416192.3279064,0.39416936,0.71809065,0.52984804,0.6058256,-0.8022188,0.6748534
123,1778416192.338023,0.40587732,0.7253472,0.52588433,0.64675355,-0.72158456,0.7136433
124,1778416192.3481488,0.40288937,0.73510385,0.51320064,0.5671884,-0.6462954,0.72433347
125,1778416192.358267,0.40136486,0.73894554,0.50002915,0.4447099,-0.62873304,0.7171558
126,1778416192.3683941,0.45197758,0.7305914,0.48777235,0.3061962,-0.64736444,0.70249504
127,1778416192.3785064,0.45197758,0.7305914,0.48777235,0.3061962,-0.64736444,0.70249504
128,1778416192.3886943,0.5278967,0.7292499,0.5624109,0.07422013,-0.8414669,0.54061574
129,1778416192.3990989,0.5321042,0.67607605,0.55100775,0.1656972,-0.8686504,0.4906775
130,1778416192.409381,0.5321042,0.67607605,0.55100775,0.38637227,-0.8782715,0.48731774
131,1778416192.4195292,0.51246893,0.6653437,0.5283235,0.62949663,-0.8651379,0.52519137
132,1778416192.429624,0.51344454,0.6658315,0.52588433,0.73426,-0.8342892,0.54993147
133,1778416192.4397693,0.6063768,0.64619625,0.5003341,0.76067996,-0.7246389,0.58291817
134,1778416192.4501495,0.6063768,0.64619625,0.5003341,0.30115658,-0.7463246,0.5030475
135,1778416192.4602737,0.63942754,0.6319881,0.4914921,0.30115658,-0.7463246,0.5030475
136,1778416192.470385,0.6594287,0.63393945,0.48752844,0.13744467,-0.8226828,0.42745295
137,1778416192.4805086,0.67010003,0.62125576,0.48954073,0.08903361,-0.88147855,0.3483459
138,1778416192.490612,0.6302807,0.5330189,0.46344167,0.37782016,-0.96990126,0.29275718
139,1778416192.5008492,0.6033279,0.4964314,0.44673342,0.5981898,-0.97585726,0.37980548
140,1778416192.5109496,0.59838855,0.46917373,0.4469163,0.752586,-0.93691456,0.5018258
141,1778416192.521052,0.640891,0.46527106,0.47161287,0.7518224,-0.8210029,0.6122397
142,1778416192.5311403,0.6952845,0.48283303,0.51265186,0.6087272,-0.676686,0.6444628
143,1778416192.5412316,0.72760344,0.479967,0.5363728,0.2932153,-0.45433104,0.6258314
144,1778416192.551338,0.73626244,0.4677102,0.51990837,0.088728175,-0.32421672,0.6036876
145,1778416192.5614645,0.7240667,0.4305739,0.4510629,-0.19425514,-0.15745051,0.5920811
146,1778416192.5717576,0.7240667,0.4305739,0.4510629,-0.19425514,-0.15745051,0.5920811
147,1778416192.5818613,0.7003457,0.4109996,0.3992306,-0.24862215,-0.15103643,0.61712664
148,1778416192.5921438,0.6589409,0.3811198,0.32221392,0.016035212,-0.3791946,0.75854194
149,1778416192.6022928,0.68333256,0.36892396,0.32855576,0.21242839,-0.5309946,0.84681195
150,1778416192.6124172,0.7063217,0.39575478,0.336544,0.3436117,-0.6088799,0.89919364
151,1778416192.6225326,0.7302255,0.42106113,0.32660443,0.3565926,-0.65118235,0.8917105
152,1778416192.6327367,0.7540074,0.40880433,0.31196943,0.26618454,-0.71578133,0.8680395
153,1778416192.6428387,0.78108215,0.38727868,0.28574836,0.1479821,-0.79244494,0.86544335
154,1778416192.6529567,0.79126567,0.38776654,0.27404037,0.090713486,-0.8559749,0.8732319
155,1778416192.6630652,0.796144,0.38386387,0.2745282,0.07971791,-0.8872818,0.87949324
156,1778416192.6731634,0.80870575,0.37599754,0.2613567,0.119729586,-0.91645056,0.8961393
157,1778416192.6832643,0.8183404,0.38374192,0.23794071,0.119729586,-0.91645056,0.8961393
158,1778416192.6934023,0.8378538,0.38130274,0.23641624,0.25778514,-1.0245737,0.93370754
159,1778416192.7035341,0.8378538,0.38130274,0.23641624,0.25778514,-1.0245737,0.93370754
160,1778416192.7136428,0.8773683,0.40173078,0.23519666,0.30192015,-1.0729848,0.88789266
161,1778416192.7237697,0.88127095,0.40953606,0.24245316,0.2564107,-1.0571023,0.8162687
162,1778416192.7338936,0.88127095,0.40953606,0.24245316,0.2564107,-1.0571023,0.8162687
163,1778416192.7440803,0.89151543,0.34672755,0.2617226,0.040317107,-0.97509366,0.7451029
164,1778416192.7541945,0.8875518,0.30282256,0.2595883,-0.049938235,-0.90469146,0.78893244
165,1778416192.764386,0.8737705,0.29599288,0.24653877,-0.041996986,-0.88056225,0.82924956
166,1778416192.7744937,0.8731607,0.28574836,0.2271474,0.04596761,-0.8605564,0.892016
167,1778416192.7845984,0.90419906,0.26763758,0.20720722,0.17745635,-0.8564331,0.93477654
168,1778416192.79471,0.9421281,0.27099144,0.18708408,0.26007587,-0.893085,0.960891
169,1778416192.8048446,0.96359277,0.30459094,0.178547,0.28970283,-0.93660915,0.9286679
170,1778416192.8149629,0.96895903,0.31331098,0.17263202,0.29275718,-0.95233893,0.8576548
171,1778416192.825084,0.9703005,0.3050178,0.15464316,0.2750421,-0.95707315,0.79534656
172,1778416192.8351948,0.96517825,0.27275982,0.12519024,0.2750421,-0.95707315,0.79534656
173,1778416192.8454554,0.96408063,0.25373432,0.11317733,0.2695443,-0.9969321,0.766025
174,1778416192.8557131,0.9904236,0.24013597,0.12482436,0.30863968,-0.9958631,0.79381937
175,1778416192.8658175,1.0226816,0.23184279,0.1451914,0.3371976,-0.9104946,0.80832744
176,1778416192.876097,1.0529273,0.22989148,0.1504356,0.33414328,-0.8019133,0.8011498
177,1778416192.886209,1.0856122,0.23714797,0.1507405,0.26297748,-0.6543894,0.75441855
178,1778416192.8963385,1.0953078,0.23129399,0.13519081,0.1441642,-0.51144695,0.67256266
179,1778416192.9064503,1.0912222,0.21854934,0.108055085,0.02031127,-0.41905355,0.602924
180,1778416192.9165769,1.0783556,0.20293866,0.08677336,-0.075594574,-0.37995818,0.5758932
181,1778416192.9266844,1.0651231,0.19513334,0.07128465,-0.12797627,-0.40378192,0.57757306
182,1778416192.9368124,1.0512809,0.1750712,0.042807378,-0.15745051,-0.495259,0.5911648
183,1778416192.9469306,1.0492685,0.15409435,0.037075333,-0.13362677,-0.6197228,0.61529404
184,1778416192.9570513,1.0600009,0.13561767,0.04835648,-0.07574729,-0.72250086,0.6389651
185,1778416192.9671855,1.0747578,0.1419595,0.07207738,0.025809057,-0.8135198,0.66599584
186,1778416192.9773147,1.0959176,0.16250949,0.10250599,0.1226312,-0.8333729,0.64660084
187,1778416192.9874458,1.0970153,0.17275399,0.11708001,0.22174409,-0.8037459,0.590554
188,1778416192.9975908,1.1014057,0.17080265,0.12580003,0.2782491,-0.7545713,0.52274793
189,1778416193.0077243,1.091649,0.16738781,0.12098267,0.2780964,-0.6834055,0.46181414
190,1778416193.0178757,1.0778677,0.15226498,0.097322755,0.25137106,-0.64721173,0.4289801
191,1778416193.0280063,1.0806118,0.11372615,0.08244383,0.22082779,-0.63606346,0.41218132
192,1778416193.0381215,1.0833559,0.07762648,0.06073525,0.19929479,-0.63239825,0.44180828
193,1778416193.0482426,1.0852462,0.0746385,0.05250306,0.17898351,-0.65270954,0.48365256
194,1778416193.0583885,1.0921369,0.08055348,0.0714066,0.15118915,-0.65500027,0.49235737
195,1778416193.068509,1.097625,0.08055348,0.093785964,0.10277808,-0.6209445,0.48197266
196,1778416193.0786204,1.0952468,0.085004956,0.10299382,0.021685716,-0.551764,0.45845437
197,1778416193.08874,1.0748798,0.09817646,0.10738432,-0.060628377,-0.47907108,0.42745295
198,1778416193.0988903,1.074331,0.10104248,0.09567632,-0.111635625,-0.43295074,0.39752057
199,1778416193.1090662,1.0699404,0.105920814,0.09518848,-0.124005646,-0.4014912,0.35735616
200,1778416193.1191995,1.0669525,0.10689648,0.08835881,-0.129198,-0.377362,0.3182608
201,1778416193.1295176,1.0731723,0.08933448,0.07530928,-0.13561209,-0.38698313,0.28160888
202,1778416193.1396458,1.0877464,0.06982114,0.067625895,-0.14462234,-0.41233405,0.2510656
203,1778416193.1497488,1.1057962,0.053234816,0.07884607,-0.15210545,-0.43386704,0.24251351
204,1778416193.1599116,1.1073208,0.05567398,0.089517415,-0.16539176,-0.43508878,0.24266621
205,1778416193.170024,1.1123209,0.06256463,0.1074453,-0.18707748,-0.41920626,0.24281894
206,1778416193.1802907,1.1163456,0.06744295,0.125861,-0.2087632,-0.38652498,0.23945917
207,1778416193.190446,1.1305537,0.082077965,0.13982524,-0.17195857,-0.20952678,0.18921551
208,1778416193.2005434,1.1348833,0.07768746,0.12866604,-0.17195857,-0.20952678,0.18921551
209,1778416193.2106624,1.1348833,0.07768746,0.12866604,-0.112399206,-0.12904528,0.14095716
210,1778416193.2207847,1.1424447,0.06006448,0.089822315,0.00870483,-0.05375614,0.07620544
211,1778416193.2309115,1.1487255,0.060552314,0.07957781,0.06780604,-0.040775254,0.034055736
212,1778416193.2410169,1.1487255,0.060552314,0.07957781,0.09896017,-0.031306844,0.00076358154
213,1778416193.2511322,1.1638484,0.06104015,0.08537084,0.09896017,-0.031306844,0.00076358154
214,1778416193.2612393,1.1638484,0.06104015,0.08537084,0.14340061,0.022602014,-0.079107046
215,1778416193.2713435,1.1452497,0.06390616,0.06988213,0.14874569,0.1553125,-0.23319781
216,1778416193.2818172,1.1452497,0.06390616,0.06988213,0.14874569,0.1553125,-0.23319781
217,1778416193.2919686,1.1060401,0.031221334,0.037624147,0.09010262,0.321926,-0.36453384
218,1778416193.3020835,1.0922589,0.016586334,0.026525937,0.08903361,0.37980548,-0.3912592
219,1778416193.3122082,1.077075,0.0102445,0.0071955416,0.11591168,0.42317688,-0.39522982
220,1778416193.322343,1.0647572,0.014086187,-0.014147166,0.17547104,0.43493605,-0.3846924
221,1778416193.332481,1.0528663,0.023781875,-0.047746688,0.25305092,0.38621956,-0.36483926
222,1778416193.3425863,1.0560373,0.03146525,-0.096469045,0.31688634,0.28221974,-0.35705075
223,1778416193.352685,1.0533541,0.052381106,-0.14763056,0.3801109,0.09850202,-0.35063666
224,1778416193.3628793,1.0533541,0.052381106,-0.14763056,0.3801109,0.09850202,-0.35063666
225,1778416193.3730068,1.0468904,0.060125455,-0.17683959,0.4071417,-0.053603426,-0.34987307
226,1778416193.3831072,1.0468904,0.04256346,-0.17433943,0.5233588,-0.50411654,-0.35903606
227,1778416193.3933935,1.0375606,0.028782167,-0.0034758127,0.5558874,-0.45005497,-0.28710666
228,1778416193.4036207,1.0484148,0.035124,0.017866896,0.54412824,-0.31245756,-0.20234911
229,1778416193.4137406,1.0513418,0.056100838,0.013354438,0.50778174,-0.20250183,-0.14676037
230,1778416193.423876,1.0679282,0.08921252,0.0014025208,0.44791695,-0.118966006,-0.11056661
231,1778416193.434007,1.0898197,0.13299556,-0.020367041,0.3932445,-0.084910266,-0.13561209
232,1778416193.44413,1.097686,0.1568994,-0.020489,0.3817908,-0.077579886,-0.20525073
233,1778416193.45423,1.1196384,0.1539724,-0.016708292,0.41722095,-0.05009095,-0.30833423
234,1778416193.464341,1.1196384,0.1539724,-0.016708292,0.41722095,-0.05009095,-0.30833423
235,1778416193.474446,1.106345,0.14220342,-0.03457519,0.48487428,0.06780604,-0.40546182
236,1778416193.4845526,1.106345,0.14220342,-0.03457519,0.48487428,0.06780604,-0.40546182
237,1778416193.494663,1.0834168,0.14415476,-0.038355898,0.36667186,0.15271631,-0.516792
238,1778416193.5047863,1.0546957,0.17635176,-0.04189269,0.21777347,0.26816985,-0.54809886
239,1778416193.5149603,1.0351213,0.18708408,-0.05939371,0.118202426,0.30726522,-0.5874997
240,1778416193.5250678,1.0220108,0.19879209,-0.056954544,0.010995574,0.3295618,-0.64873886
241,1778416193.5351949,1.0132298,0.20220692,-0.06280854,-0.0421497,0.30695978,-0.7254025
242,1778416193.5454426,1.0123152,0.18665724,-0.04762473,-0.042760566,0.2863431,-0.78038037
243,1778416193.5555923,1.0000583,0.16616823,-0.051344458,-0.011759156,0.27168232,-0.8199339
244,1778416193.5656972,0.986399,0.15494807,-0.04927117,0.007483099,0.25228736,-0.8249735
245,1778416193.5757937,0.96353185,0.1589117,-0.039941356,0.034208454,0.24373524,-0.81306165
246,1778416193.5859149,0.93822545,0.16866837,-0.04189269,0.023518313,0.23289238,-0.79213953
247,1778416193.59617,0.9110898,0.20281671,-0.024452647,-0.04062254,0.20922135,-0.753655
248,1778416193.6062799,0.8887104,0.2423312,-0.02561125,-0.0926988,0.18661933,-0.74464476
249,1778416193.616495,0.87419736,0.27404037,-0.020854875,-0.12767084,0.09636399,-0.7799222
250,1778416193.6266096,0.8738315,0.29306588,-0.006890646,-0.112704635,0.031001411,-0.8315403
251,1778416193.6368086,0.86309916,0.29989552,-0.0064028124,-0.09040806,-0.016035212,-0.8697194
252,1778416193.64719,0.8460859,0.28239453,0.000121958336,-0.09086621,-0.06078109,-0.8979719
253,1778416193.6574578,0.8391954,0.25123417,0.0061588963,-0.11988231,-0.079870634,-0.8695667
254,1778416193.6675804,0.82937765,0.24635585,-0.0020732917,-0.14004086,-0.08460484,-0.82527894
255,1778416193.6776934,0.82645065,0.25312454,-0.016220458,-0.15286903,-0.13026701,-0.74082685
256,1778416193.6879704,0.85480595,0.27117437,0.00060979166,-0.11346822,-0.17745635,-0.6568329
257,1778416193.698077,0.887003,0.30282256,-0.013293459,-0.012217305,-0.20586158,-0.5868888
258,1778416193.7082982,0.9312738,0.3353854,-0.033599522,0.1441642,-0.2657264,-0.56046885
259,1778416193.7184148,0.9605439,0.3840468,-0.052015226,0.22525656,-0.28787026,-0.57344973
260,1778416193.72854,0.98828936,0.3942913,-0.058966853,0.24037547,-0.3013093,-0.6226244
261,1778416193.7386682,1.0117663,0.4054505,-0.050368793,0.14920384,-0.2669481,-0.67179906
262,1778416193.7488089,1.0259744,0.40502363,-0.03292875,0.03145956,-0.21700987,-0.7096727
263,1778416193.7589343,1.0232915,0.4036211,0.011829958,-0.16966783,-0.11453723,-0.74296486
264,1778416193.7690647,0.9860331,0.42667124,0.053173836,-0.3231477,0.009315695,-0.75594574
265,1778416193.7792034,0.9627391,0.43496442,0.062015813,-0.43417248,0.10399981,-0.75716746
266,1778416193.7893794,0.9476163,0.43398872,0.063967146,-0.4531093,0.15118915,-0.7263188
267,1778416193.799506,0.9358473,0.4607586,0.037136313,-0.31566462,0.13958271,-0.68126744
268,1778416193.8096125,0.94944566,0.49045542,0.019879209,-0.10216721,0.10216721,-0.6601926
269,1778416193.8197155,0.9654831,0.5221036,0.0016464376,0.10293079,-0.015882496,-0.7150178
270,1778416193.8298175,0.9654831,0.5221036,0.0016464376,0.10293079,-0.015882496,-0.7150178
271,1778416193.8401003,0.93926215,0.52850646,0.013842272,0.059406646,-0.067500606,-0.7831292
272,1778416193.8502064,0.85212296,0.46331972,0.054454394,-0.02977968,-0.07437284,-0.84589565
273,1778416193.860353,0.81840134,0.42484185,0.04994194,-0.123242065,-0.0364992,-0.8669705
274,1778416193.870772,0.81840134,0.42484185,0.04994194,-0.15775596,0.0022907446,-0.82986045
275,1778416193.8809862,0.78955823,0.40971902,0.040917024,-0.15210545,0.028863383,-0.75884736
276,1778416193.8911161,0.7704718,0.41264603,0.028294332,-0.11010846,-0.007483099,-0.66889745
277,1778416193.9012444,0.82937765,0.40868238,0.017379062,0.08827003,-0.07971791,-0.5534439
278,1778416193.9113462,0.84590304,0.41160935,0.014391083,0.19303341,-0.13209961,-0.48487428
279,1778416193.921484,0.83767086,0.4481359,0.005488125,0.30390546,-0.150731,-0.42852196
280,1778416193.9316165,0.7954123,0.50862724,0.012561709,0.43997568,-0.16233744,-0.3979787
281,1778416193.9417167,0.76870334,0.5067369,0.02628202,0.52290064,-0.09162979,-0.399964
282,1778416193.9518456,0.76870334,0.5067369,0.02628202,0.52290064,-0.09162979,-0.399964
283,1778416193.9619489,0.7557758,0.4642954,-0.0001829375,0.5390886,0.29550606,-0.22220223
284,1778416193.9722004,0.7557758,0.4642954,-0.0001829375,0.5390886,0.29550606,-0.22220223
285,1778416193.982319,0.7374821,0.4982608,-0.06061329,0.4999932,0.49113566,-0.121256754
286,1778416193.9925396,0.72120064,0.53911686,-0.12256813,0.39492437,0.65576386,-0.036651913
287,1778416194.0026653,0.7022971,0.6281464,-0.2183664,0.13408493,0.70417494,0.04184427
288,1778416194.0127676,0.6891866,0.6471719,-0.22476922,0.03772093,0.62873304,0.043982297
289,1778416194.022865,0.69900423,0.65790427,-0.21611017,-0.11026118,0.4196644,0.035277467
290,1778416194.0330124,0.7191273,0.6462572,-0.18257163,-0.1695151,0.26435193,0.027183503
291,1778416194.043134,0.7295548,0.6390007,-0.14805742,-0.14721853,0.15332718,0.023060163
292,1778416194.053267,0.72394466,0.6313173,-0.09201756,-0.051465396,0.10094548,0.043982297
293,1778416194.0633957,0.70711446,0.6518673,-0.06433302,-0.03176499,0.11530081,0.056046885
294,1778416194.0734851,0.68680835,0.6679658,-0.038599815,-0.09682214,0.18448131,0.06047566
295,1778416194.0835898,0.6891866,0.66406316,-0.047807667,-0.22510384,0.22968534,0.06918049
296,1778416194.0936968,0.68424726,0.682052,-0.066894144,-0.32436943,0.23991732,0.07880162
297,1778416194.1038184,0.6798567,0.69180864,-0.07323598,-0.36102137,0.22204952,0.064446285
298,1778416194.1139514,0.6875401,0.679125,-0.08878566,-0.39171734,0.16554448,0.06719518
299,1778416194.1240554,0.6730271,0.70351666,-0.079638794,-0.41126502,0.116217114,0.08445212
300,1778416194.1341672,0.6361347,0.737665,-0.059759583,-0.45234573,0.1151481,0.09941832
301,1778416194.144311,0.60107166,0.7460191,-0.05866196,-0.5421429,0.11453723,0.101556346
302,1778416194.1544406,0.6005229,0.74211645,-0.06793079,-0.6221663,0.08475755,0.11835514
303,1778416194.1645553,0.61899954,0.7352258,-0.079089984,-0.70952,0.010537425,0.15943582
304,1778416194.1746638,0.63357353,0.7424823,-0.087017275,-0.7498371,-0.082161374,0.18784106
305,1778416194.184826,0.6521722,0.77516717,-0.09116385,-0.763887,-0.24129178,0.20372356
306,1778416194.1949327,0.65180635,0.80687636,-0.07238227,-0.75411314,-0.38606682,0.182496
307,1778416194.205075,0.62509745,0.8185843,-0.05921077,-0.7441866,-0.49220467,0.14187345
308,1778416194.2152,0.6084501,0.7859605,-0.060918186,-0.7666359,-0.5681047,0.12003502
309,1778416194.2253711,0.60015696,0.72705466,-0.038599815,-0.8165741,-0.66920286,0.16325374
310,1778416194.235613,0.6114381,0.7051631,-0.014695979,-0.83184576,-0.68829244,0.22204952
311,1778416194.245725,0.6130236,0.71248055,0.0012805625,-0.819323,-0.69806623,0.26725355
312,1778416194.2558587,0.6025351,0.74370193,0.027440626,-0.72418076,-0.69974613,0.3200934
313,1778416194.2659748,0.6084501,0.75595874,0.037563168,-0.6076582,-0.70524395,0.33841935
314,1778416194.2762377,0.611865,0.76565444,0.03652652,-0.5479461,-0.7139487,0.35735616
315,1778416194.2863555,0.63595176,0.79150957,0.05768629,-0.49296826,-0.7443393,0.42287147
316,1778416194.2965128,0.64644015,0.8573671,0.08299265,-0.45875978,-0.77472985,0.46777007
317,1778416194.3066251,0.6568676,0.91340697,0.0918956,-0.38133264,-0.8005389,0.4560109
318,1778416194.3168573,0.6758931,0.9236514,0.090737,-0.2835942,-0.83001316,0.42073345
319,1778416194.326987,0.6829057,0.93883526,0.118360564,-0.10338894,-0.8032878,0.35521814
320,1778416194.3372242,0.69266236,0.9222489,0.13445906,-0.003970624,-0.7470882,0.3115413
321,1778416194.347363,0.6868694,0.91743153,0.14525238,0.054367006,-0.6774496,0.2854268
322,1778416194.3574991,0.6737588,0.90523577,0.15702136,0.118202426,-0.45234573,0.2312125
323,1778416194.367614,0.6652827,0.88084406,0.12708059,0.1253801,-0.18463401,0.18020524
324,1778416194.3777246,0.66747797,0.8646846,0.09457869,0.12110403,-0.021838432,0.14492778
325,1778416194.3878794,0.66577053,0.84218323,0.042136606,0.116675265,0.1049161,0.116980694
326,1778416194.3979945,0.66052634,0.8338291,-0.0020123124,0.11927144,0.14584407,0.09865474
327,1778416194.4083211,0.6685146,0.8205357,-0.05549104,0.13057245,0.0842994,0.055741455
328,1778416194.4186144,0.68540585,0.8190112,-0.08085837,0.1684461,-0.008857546,0.023365596
329,1778416194.4288368,0.7059558,0.8131572,-0.074577525,0.23991732,-0.17562376,-0.021685716
330,1778416194.4392154,0.7226641,0.8151695,-0.04494165,0.3284928,-0.27382034,-0.07040222
331,1778416194.4493246,0.72059083,0.8182185,0.018293751,0.4289801,-0.20799962,-0.13622294
332,1778416194.4595573,0.72059083,0.8182185,0.018293751,0.4289801,-0.20799962,-0.13622294
333,1778416194.4696596,0.70741934,0.822609,0.016342416,0.42195517,-0.121256754,-0.15439619
334,1778416194.4799747,0.705407,0.8182185,0.01103723,0.37980548,-0.059406646,-0.17455475
335,1778416194.4900877,0.7058948,0.80651045,0.0086590415,0.3275765,0.010842858,-0.20952678
336,1778416194.500218,0.73528683,0.7605932,-0.036892395,0.32528573,0.060170226,-0.23136522
337,1778416194.5103538,0.79029,0.7824237,-0.05573496,0.42164972,-0.08628472,-0.20815234
338,1778416194.5205884,0.7870581,0.82437736,-0.043783043,0.56031615,-0.15454891,-0.25488353
339,1778416194.5306907,0.76138586,0.8516961,-0.018598646,0.6711882,-0.15760323,-0.33551773
340,1778416194.5407894,0.7380918,0.84102464,-0.0014025208,0.70005155,-0.082924955,-0.39813143
341,1778416194.550908,0.7460191,0.75473917,-0.03158721,0.6250679,0.036957346,-0.42745295
342,1778416194.5610585,0.7676667,0.7005287,-0.0629305,0.48502702,0.055741455,-0.38591412
343,1778416194.5712328,0.7676667,0.7005287,-0.0629305,0.48502702,0.055741455,-0.38591412
344,1778416194.5813427,0.76797163,0.70583385,-0.100432694,0.4286747,0.09101892,-0.34498614
345,1778416194.5915487,0.76797163,0.70583385,-0.100432694,0.4120286,0.111635625,-0.3275765
346,1778416194.6016715,0.76943517,0.72144455,-0.09957898,0.39354995,0.06582073,-0.3275765
347,1778416194.6118588,0.7394334,0.7322379,-0.07079682,0.34223726,0.12034045,-0.39171734
348,1778416194.6220226,0.6835155,0.65003794,-0.012195834,0.2680171,0.23411411,-0.3651447
349,1778416194.6321557,0.65766037,0.6120479,0.00030489583,0.13897185,0.44715336,-0.28405234
350,1778416194.6422591,0.65546507,0.5554592,-0.027562585,-0.027183503,0.6568329,-0.15974127
351,1778416194.6523762,0.66991717,0.56076443,-0.055369087,-0.15775596,0.7600691,-0.060322944
352,1778416194.6624932,0.71937126,0.5693625,-0.10183521,-0.28527406,0.8029824,0.024129177
353,1778416194.6726463,0.74345803,0.61015755,-0.17122951,-0.34773505,0.64766985,0.05757405
354,1778416194.682757,0.74534833,0.6291221,-0.19568215,-0.34773505,0.45952338,0.04016439
355,1778416194.6929,0.74534833,0.6291221,-0.19568215,-0.34773505,0.45952338,0.04016439
356,1778416194.7030003,0.7410189,0.59405905,-0.16921718,-0.13194689,-0.25320363,-0.03145956
357,1778416194.7131505,0.74608016,0.559118,-0.11305538,0.029168816,-0.56291234,-0.0016798794
358,1778416194.723449,0.7626055,0.5363118,-0.031282313,0.16187929,-0.77579886,0.055283304
359,1778416194.7335508,0.7897412,0.5286284,0.036282603,0.2724459,-0.86330533,0.11652254
360,1778416194.7436974,0.81943804,0.5166155,0.12043386,0.3378085,-0.78038037,0.18081611
361,1778416194.7538092,0.81669396,0.52448183,0.14805742,0.36346483,-0.6249151,0.22724187
362,1778416194.7639308,0.7885216,0.5263112,0.08152915,0.35521814,-0.4644103,0.2753475
363,1778416194.7740488,0.7619347,0.5344824,0.026160065,0.3202461,-0.43050727,0.28909197
364,1778416194.7842774,0.74705577,0.52807957,-0.025306353,0.29367346,-0.45448375,0.30405816
365,1778416194.7943811,0.71528566,0.5221036,-0.11811664,0.3284928,-0.5571091,0.32803464
366,1778416194.804606,0.67680776,0.5233842,-0.20306063,0.3284928,-0.5571091,0.32803464
367,1778416194.8147287,0.6415618,0.51021266,-0.23300138,0.65087694,-1.070236,0.35460728
368,1778416194.8248932,0.661563,0.48051584,-0.21495157,0.81245077,-1.2846496,0.39064834
369,1778416194.8350165,0.70382154,0.45673394,-0.12549512,0.8153524,-1.3255776,0.45906523
370,1778416194.8453348,0.72662777,0.46807608,-0.073540874,0.6940956,-1.188591,0.50823987
371,1778416194.8555548,0.73278666,0.47008842,-0.025916148,0.45005497,-0.8749117,0.54168475
372,1778416194.865667,0.7244325,0.4466724,-0.030611541,0.22510384,-0.5757405,0.5652031
373,1778416194.8757966,0.69418687,0.39685243,-0.10220108,-0.030390546,-0.19440787,0.63194007
374,1778416194.885913,0.66296554,0.36746046,-0.18604743,-0.10216721,-0.11438452,0.6768387
375,1778416194.8960185,0.676259,0.32837284,-0.22574489,-0.17073683,-0.14187345,0.7460192
376,1778416194.9061272,0.676259,0.32837284,-0.22574489,-0.17073683,-0.14187345,0.7460192
377,1778416194.9162576,0.7950464,0.3352025,-0.17122951,-0.110872045,-0.2759584,0.8700248
378,1778416194.9263773,0.8098033,0.35959417,-0.15830192,-0.022449298,-0.2764165,0.8605564
379,1778416194.9366663,0.81608415,0.37081432,-0.17153439,0.09850202,-0.2518292,0.81046546
380,1778416194.9468043,0.8182185,0.34873986,-0.21324414,0.19517145,-0.24510968,0.7666359
381,1778416194.9569702,0.8291947,0.31312802,-0.24470939,0.29046643,-0.27947086,0.73746705
382,1778416194.967163,0.85907453,0.275138,-0.19934091,0.29550606,-0.26984972,0.74479747
383,1778416194.977292,0.9065772,0.2420873,-0.14921603,0.20570888,-0.12095132,0.7863363
384,1778416194.987591,0.9354814,0.24159946,-0.12256813,0.08124508,0.06429356,0.8367327
385,1778416194.9977021,0.95347023,0.26153967,-0.14122775,-0.12812899,0.31871894,0.8588765
386,1778416195.0079129,0.9521897,0.26519838,-0.2828214,-0.27382034,0.35445455,0.8223773
387,1778416195.018244,0.92779803,0.3137378,-0.39734024,-0.21120666,0.05131268,0.7160868
388,1778416195.0284405,0.9495676,0.31654286,-0.42953727,0.06093381,-0.4156938,0.5523749
389,1778416195.0386071,0.971764,0.31666481,-0.37514386,0.42531493,-0.8700248,0.36453384
390,1778416195.0489492,1.0103029,0.25885656,-0.26062497,0.6910413,-1.0693196,0.24419338
391,1778416195.059364,1.0371946,0.21763465,-0.14031307,0.88331115,-1.0366384,0.16523905
392,1778416195.06956,1.0301211,0.20507295,-0.09256637,0.86009824,-0.8507826,0.16447547
393,1778416195.0796964,1.012559,0.1958041,-0.08750511,0.7835874,-0.6814202,0.1777618
394,1778416195.0898552,0.974813,0.15141128,-0.11488476,0.5893322,-0.37888917,0.23273966
395,1778416195.100274,0.99060655,0.11476279,-0.15409435,0.37094793,-0.14248432,0.3294091
396,1778416195.1103747,1.0346335,0.13311753,-0.22300081,0.12980886,0.18936823,0.5342017
397,1778416195.120473,1.0359751,0.18958424,-0.26123476,0.09896017,0.23533584,0.5627596
398,1778416195.1305702,1.0428047,0.22611076,-0.2736745,0.087659165,0.20769419,0.54076844
399,1778416195.1406884,1.0565251,0.24562408,-0.27434528,0.120493166,0.1459968,0.4718934
400,1778416195.1507864,1.0632937,0.2470876,-0.27678445,0.18371773,0.075594574,0.40500367
401,1778416195.1611474,1.0632937,0.2470876,-0.27678445,0.18371773,0.075594574,0.40500367
402,1778416195.171415,1.0798801,0.23879443,-0.28019926,0.29031372,-0.025045475,0.32803464
403,1778416195.1815257,1.0896977,0.22318375,-0.25678328,0.37064248,-0.10873401,0.28787026
404,1778416195.1916373,1.0967103,0.19745055,-0.21580528,0.37980548,-0.023060163,0.29657507
405,1778416195.2017457,1.0956737,0.19549921,-0.21922012,0.3220787,0.03268129,0.31429017
406,1778416195.212081,1.0956737,0.19549921,-0.21922012,0.23396139,0.08979719,0.32253686
407,1778416195.2221942,1.0761603,0.2086707,-0.22696446,0.16233744,0.102319926,0.3184135
408,1778416195.2323282,1.0585984,0.21641506,-0.24013597,0.10644327,0.10262536,0.30558532
409,1778416195.2424417,1.0458537,0.21690291,-0.2502585,0.08552113,0.090713486,0.2874121
410,1778416195.2525918,1.036036,0.20860973,-0.26184455,0.09728029,0.0627664,0.26648995
411,1778416195.2626936,1.0382923,0.18958424,-0.2851386,0.14767668,-0.0038179078,0.23640485
412,1778416195.2728229,1.0493906,0.15153323,-0.2907487,0.21135938,-0.08017606,0.2209805
413,1778416195.2830198,1.0493906,0.15153323,-0.2907487,0.21135938,-0.08017606,0.2209805
414,1778416195.2931228,1.0287185,0.1144579,-0.31623796,0.29871312,-0.25793785,0.21502456
415,1778416195.3032308,1.0126201,0.086712375,-0.30776188,0.29871312,-0.25793785,0.21502456
416,1778416195.313467,1.0038391,0.05939371,-0.3017249,0.29458976,-0.4363105,0.26007587
417,1778416195.3237228,1.0135348,0.030672522,-0.29379764,0.2848159,-0.48701233,0.28939742
418,1778416195.3338842,1.0442683,-0.0029879792,-0.27812597,0.27290404,-0.52549684,0.33475417
419,1778416195.3440173,1.0526224,0.0043295207,-0.2719061,0.2284636,-0.537256,0.38163805
420,1778416195.3541641,1.0560982,0.0160985,-0.2593444,0.14752395,-0.54168475,0.41798455
421,1778416195.3643048,1.0669525,0.016586334,-0.23842856,0.070249505,-0.514654,0.4457789
422,1778416195.374406,1.0762823,0.023903834,-0.22733033,0.024587326,-0.48670688,0.4718934
423,1778416195.384504,1.10665,0.029818814,-0.20220692,-0.012980887,-0.3839288,0.5348125
424,1778416195.3946073,1.1351272,0.0629305,-0.17818113,-0.026419923,-0.24281894,0.5682574
425,1778416195.4047272,1.1404933,0.11604336,-0.19848719,-0.028252518,-0.077579886,0.5342017
426,1778416195.4148722,1.1340905,0.15939954,-0.22397648,-0.03573562,0.07086037,0.42439863
427,1778416195.4250016,1.1367736,0.16464376,-0.28532153,-0.04016439,0.17333302,0.27656925
428,1778416195.4351275,1.1433594,0.14653294,-0.30568856,-0.055588737,0.22036964,0.17027868
429,1778416195.4452996,1.1407983,0.12701961,-0.31721362,-0.09010262,0.26160303,0.088728175
430,1778416195.455478,1.1295171,0.11384811,-0.32831186,-0.15974127,0.2968805,0.013591751
431,1778416195.4655907,1.1071378,0.108055085,-0.32184806,-0.25366178,0.32146785,-0.051465396
432,1778416195.4757063,1.1071378,0.108055085,-0.32184806,-0.25366178,0.32146785,-0.051465396
433,1778416195.4858222,1.1071378,0.108055085,-0.32184806,-0.25366178,0.32146785,-0.051465396
434,1778416195.4961908,1.1071378,0.108055085,-0.32184806,-0.25366178,0.32146785,-0.051465396
435,1778416195.5063066,1.0606717,0.06921136,-0.2455631,-0.42714754,0.6082691,-0.22311853
436,1778416195.516459,1.0425608,0.06384519,-0.25861263,-0.38927388,0.675617,-0.23319781
437,1778416195.526589,1.0439024,0.053112853,-0.27702835,-0.31887165,0.6776023,-0.22892176
438,1778416195.5367644,1.0471343,0.050612707,-0.30861557,-0.18799378,0.63346726,-0.21197024
439,1778416195.5468848,1.0631108,0.057320416,-0.3345317,-0.03191771,0.5204572,-0.19410244
440,1778416195.5571184,1.0689648,0.07195542,-0.33995885,0.08628472,0.4173737,-0.19303341
441,1778416195.5673285,1.0660988,0.08659042,-0.32398233,0.18509217,0.3034473,-0.20265454
442,1778416195.5774755,1.0660988,0.08659042,-0.32398233,0.18509217,0.3034473,-0.20265454
443,1778416195.5876048,1.0660988,0.08659042,-0.32398233,0.18509217,0.3034473,-0.20265454
444,1778416195.5978408,1.0660988,0.08659042,-0.32398233,0.18509217,0.3034473,-0.20265454
445,1778416195.6079757,1.0381093,0.08280971,-0.27477214,0.1656972,0.14309518,-0.23090707
446,1778416195.618335,1.0493906,0.07799236,-0.26306412,0.1777618,0.086437434,-0.20540343
447,1778416195.628467,1.053842,0.09116385,-0.2602591,0.22128594,0.054825157,-0.19120082
448,1778416195.6386058,1.0465854,0.11988505,-0.25891754,0.2501493,0.018478673,-0.19883664
449,1778416195.648727,1.0354873,0.1340932,-0.24489233,0.2678644,-0.027488936,-0.21624629
450,1778416195.6590629,1.036097,0.13945936,-0.22641563,0.2554944,-0.032223143,-0.23823744
451,1778416195.6692333,1.0307918,0.15799703,-0.2133661,0.22999077,-0.004428773,-0.26725355
452,1778416195.6793993,1.0307918,0.15799703,-0.2133661,0.1947133,0.054825157,-0.30589077
453,1778416195.6895084,1.0307918,0.15799703,-0.2133661,0.1947133,0.054825157,-0.30589077
454,1778416195.6998248,1.0307918,0.15799703,-0.2133661,0.1947133,0.054825157,-0.30589077
455,1778416195.7099366,1.0366459,0.16872935,-0.21976891,-0.099571034,0.32543847,-0.41508293
456,1778416195.720206,1.0366459,0.16872935,-0.21976891,-0.099571034,0.32543847,-0.41508293
457,1778416195.73032,1.0299991,0.15854584,-0.18805976,-0.23243423,0.35262197,-0.3746131
458,1778416195.7404902,1.0096321,0.17714448,-0.16720487,-0.26099217,0.3987423,-0.34987307
459,1778416195.750591,0.9848745,0.19860914,-0.16141187,-0.24236079,0.46609017,-0.33399057
460,1778416195.7607086,0.9711542,0.21562232,-0.18043736,-0.1908954,0.5152648,-0.3222314
461,1778416195.7708137,0.96773934,0.21318316,-0.17940071,-0.14614952,0.51266867,-0.33735034
462,1778416195.7810292,0.96773934,0.21318316,-0.17940071,-0.14614952,0.51266867,-0.33735034
463,1778416195.791393,0.96773934,0.21318316,-0.17940071,-0.14614952,0.51266867,-0.33735034
464,1778416195.8014772,0.9735324,0.21269535,-0.18866955,-0.0071776668,0.43585235,-0.3352123
465,1778416195.8117104,0.9954239,0.19074284,-0.19299906,0.00076358154,0.3924809,-0.37323865
466,1778416195.821805,0.9828012,0.21269535,-0.18921836,-0.00580322,0.4008803,-0.4184427
467,1778416195.831934,0.96725154,0.22684251,-0.18873052,-0.005192355,0.38759398,-0.47601673
468,1778416195.8420632,0.94194525,0.23080614,-0.17994952,-0.009315695,0.37308595,-0.5224425
469,1778416195.8523464,0.92932254,0.22153732,-0.1686074,-0.015882496,0.35628715,-0.54809886
470,1778416195.862462,0.9166998,0.19476746,-0.14945993,-0.016035212,0.3707952,-0.57619864
471,1778416195.8725667,0.91718763,0.1709246,-0.14689882,-0.03772093,0.39736784,-0.57604593
472,1778416195.8827825,0.91718763,0.1709246,-0.14689882,-0.03772093,0.39736784,-0.57604593
473,1778416195.892919,0.91718763,0.1709246,-0.14689882,-0.03772093,0.39736784,-0.57604593
474,1778416195.9031663,0.91718763,0.1709246,-0.14689882,-0.03772093,0.39736784,-0.57604593
475,1778416195.913288,0.9223099,0.23611133,-0.2095854,-0.30741793,0.33490688,-0.58078015
476,1778416195.923415,0.90011346,0.2711134,-0.27050358,-0.34147367,0.16508633,-0.61483586
477,1778416195.9335036,0.8596233,0.32032356,-0.29690757,-0.3023783,-0.13423763,-0.6597345
478,1778416195.943717,0.8462079,0.33843437,-0.26239336,-0.18463401,-0.4642576,-0.70295316
479,1778416195.9538586,0.8362683,0.34197116,-0.20696329,-0.05024367,-0.6724099,-0.7254025
480,1778416195.9639726,0.84102464,0.3255068,-0.13634941,0.12599096,-0.798859,-0.7273878
481,1778416195.974085,0.88066113,0.27928457,-0.09000525,0.25610524,-0.8176431,-0.68584895
482,1778416195.984215,0.88066113,0.27928457,-0.09000525,0.25610524,-0.8176431,-0.68584895
483,1778416195.9943464,0.9227367,0.25592956,-0.045734376,0.3303254,-0.62858033,-0.5346598
484,1778416196.0044458,0.95151895,0.26660094,-0.051771317,0.29733866,-0.42943826,-0.4288274
485,1778416196.0145943,0.95151895,0.26660094,-0.051771317,0.29733866,-0.42943826,-0.4288274
486,1778416196.0247161,0.91548026,0.4113045,-0.0962861,0.10980303,0.01786781,-0.40301836
487,1778416196.0348275,0.8759658,0.43374482,-0.11958014,-0.042455133,0.20922135,-0.45875978
488,1778416196.0450222,0.8451103,0.43075684,-0.14574021,-0.18417588,0.3052799,-0.49021935
489,1778416196.0552351,0.8426101,0.395206,-0.14452063,-0.34895676,0.3472769,-0.49098295
490,1778416196.065469,0.8450493,0.3766683,-0.13080032,-0.4636467,0.34422258,-0.44333544
491,1778416196.07559,0.8812099,0.3533133,-0.10360361,-0.4925101,0.27931812,-0.37583485
492,1778416196.0860865,0.8812099,0.3533133,-0.10360361,-0.4925101,0.27931812,-0.37583485
493,1778416196.0963435,0.8812099,0.3533133,-0.10360361,-0.4925101,0.27931812,-0.37583485
494,1778416196.1065829,0.8812099,0.3533133,-0.10360361,-0.4925101,0.27931812,-0.37583485
495,1778416196.1169097,0.9091384,0.46405149,-0.039148625,0.27473664,0.38255435,-0.3735441
496,1778416196.1270962,0.8360244,0.52015233,-0.057747275,0.34513888,0.5002986,-0.43768495
497,1778416196.1372943,0.81791353,0.51137125,-0.0658575,0.25579983,0.6020077,-0.46120325
498,1778416196.1474226,0.7984003,0.52356714,-0.07219934,0.10705414,0.6824892,-0.46563202
499,1778416196.1575532,0.7973026,0.51716435,-0.09500554,-0.0067195175,0.72051555,-0.46211955
500,1778416196.1677659,0.83206075,0.47905236,-0.14013013,-0.09682214,0.6365216,-0.44532076
501,1778416196.1778805,0.8394393,0.4751497,-0.12897095,-0.069485925,0.5158757,-0.42623124
502,1778416196.1881306,0.8379757,0.46929568,-0.13281263,0.10995574,0.44730607,-0.3950771
503,1778416196.1982913,0.8379757,0.46929568,-0.13281263,0.10995574,0.44730607,-0.3950771
504,1778416196.208425,0.8335242,0.456612,-0.13323948,0.3005457,0.40042216,-0.35918877
505,1778416196.2185454,0.79833925,0.5072857,-0.1703758,0.68707067,0.35735616,-0.25045475
506,1778416196.2286804,0.84059787,0.5125299,-0.19677977,0.72616607,0.3294091,-0.21303925
507,1778416196.2389443,0.8732217,0.5339336,-0.2072682,0.6623306,0.33337972,-0.16584991
508,1778416196.249286,0.887003,0.58997345,-0.2125124,0.56077427,0.3556763,-0.15012014
509,1778416196.259389,0.8511472,0.65387964,-0.19574313,0.25885415,0.463494,-0.19960022
510,1778416196.2696116,0.8511472,0.65387964,-0.19574313,0.25885415,0.463494,-0.19960022
511,1778416196.2797408,0.74479955,0.6281464,-0.20446315,0.029168816,0.65286225,-0.22876903
512,1778416196.2898579,0.74479955,0.6281464,-0.20446315,0.029168816,0.65286225,-0.22876903
513,1778416196.300125,0.74479955,0.6281464,-0.20446315,0.029168816,0.65286225,-0.22876903
514,1778416196.3104208,0.74479955,0.6281464,-0.20446315,0.029168816,0.65286225,-0.22876903
515,1778416196.3208153,0.72577405,0.60119367,-0.28056514,-0.17470746,0.7493789,0.06704246
516,1778416196.330934,0.7127245,0.6567457,-0.28379703,-0.22739458,0.61208695,0.0954477
517,1778416196.3410363,0.6778444,0.71626127,-0.27477214,-0.25595254,0.5543602,0.07009678
518,1778416196.3511667,0.6540016,0.7197371,-0.26007617,-0.3199407,0.48838675,0.024129177
519,1778416196.3615055,0.6385738,0.71784675,-0.22842796,-0.40607268,0.49357912,0.009010263
520,1778416196.371724,0.61918247,0.7052241,-0.21171968,-0.5002986,0.54718256,0.028405234
521,1778416196.3818574,0.5735091,0.73894554,-0.19330397,-0.6388123,0.63117653,0.06536258
522,1778416196.3923771,0.5735091,0.73894554,-0.19330397,-0.6388123,0.63117653,0.06536258
523,1778416196.4024985,0.5735091,0.73894554,-0.19330397,-0.6388123,0.63117653,0.06536258
524,1778416196.4128647,0.5735091,0.73894554,-0.19330397,-0.6388123,0.63117653,0.06536258
525,1778416196.4229708,0.47990605,0.8632211,-0.24281906,-0.87857693,0.7133379,0.19272798
526,1778416196.4331574,0.4896627,0.8812099,-0.24098967,-0.91874135,0.36392298,0.25137106
527,1778416196.443279,0.49771196,0.90517473,-0.21879324,-0.8866709,0.1779145,0.29229903
528,1778416196.4533985,0.5068588,0.93938404,-0.16702195,-0.81229806,-0.04550946,0.3463606
529,1778416196.4635153,0.51435924,0.96572715,-0.13945936,-0.7304421,-0.21120666,0.37827832
530,1778416196.473624,0.5361288,0.9931067,-0.08329754,-0.60994893,-0.3915646,0.39645153
531,1778416196.483778,0.56680137,1.0132298,-0.01689123,-0.4906775,-0.49480084,0.38652498
532,1778416196.49389,0.5975958,1.0396948,0.084029295,-0.38530326,-0.45433104,0.34147367
533,1778416196.5040057,0.623634,1.0265843,0.124885336,-0.33185256,-0.3810272,0.3043636
534,1778416196.5141332,0.65394056,0.9968874,0.152204,-0.33185256,-0.3810272,0.3043636
535,1778416196.5242555,0.6639412,0.97877663,0.112872444,-0.13225232,-0.05177083,0.18417588
536,1778416196.5344214,0.6627216,0.9621293,0.07549221,-0.020922136,-0.01863139,0.13897185
537,1778416196.5445595,0.65857506,0.9357863,0.040673107,0.13729197,-0.04352415,0.07376198
538,1778416196.554733,0.6592458,0.89279604,6.0979168e-05,0.29642236,-0.10476339,0.018325957
539,1778416196.5648391,0.6594897,0.8600502,-0.028965104,0.39767328,-0.18616119,-0.007330383
540,1778416196.574969,0.6782713,0.8200479,-0.05646671,0.49373183,-0.31337386,-0.03176499
541,1778416196.585096,0.6971138,0.79852223,-0.076406896,0.5535966,-0.42332962,-0.04352415
542,1778416196.595222,0.7151637,0.78925335,-0.0705529,0.5551238,-0.51266867,-0.07666359
543,1778416196.6053658,0.7151637,0.78925335,-0.0705529,0.5551238,-0.51266867,-0.07666359
544,1778416196.615774,0.7151637,0.78925335,-0.0705529,0.5551238,-0.51266867,-0.07666359
545,1778416196.6259875,0.7151637,0.78925335,-0.0705529,0.5551238,-0.51266867,-0.07666359
546,1778416196.6361115,0.7794967,0.71711504,-0.045063604,0.39629883,-0.50823987,-0.19868392
547,1778416196.6462379,0.77364266,0.6922965,-0.03518498,0.33460143,-0.40301836,-0.23335053
548,1778416196.6563706,0.7725451,0.6669292,-0.052990895,0.2780964,-0.29168814,-0.24862215
549,1778416196.6665056,0.7791308,0.64589137,-0.079638794,0.23716843,-0.2312125,-0.25534168
550,1778416196.6766415,0.79693675,0.6238779,-0.11073817,0.21059579,-0.22021692,-0.25030205
551,1778416196.6867578,0.8221212,0.6301587,-0.14104481,0.20662516,-0.28771752,-0.24174993
552,1778416196.696888,0.83047533,0.67253923,-0.15006974,0.23243423,-0.39400807,-0.2678644
553,1778416196.7071943,0.83047533,0.67253923,-0.15006974,0.23243423,-0.39400807,-0.2678644
554,1778416196.7174406,0.83047533,0.67253923,-0.15006974,0.23243423,-0.39400807,-0.2678644
555,1778416196.7279484,0.83047533,0.67253923,-0.15006974,0.23243423,-0.39400807,-0.2678644
556,1778416196.738058,0.77998453,0.62101185,-0.09018819,0.28221974,-0.4353942,-0.49113566
557,1778416196.748229,0.7505316,0.56253284,-0.10482319,0.23976462,-0.30482176,-0.4427246
558,1778416196.7583628,0.73723817,0.5459465,-0.122202255,0.17195857,-0.21029036,-0.35995236
559,1778416196.7687156,0.7630933,0.550276,-0.1267147,0.10842858,-0.17012598,-0.30543262
560,1778416196.7789478,0.81980395,0.57954603,-0.10665256,0.038789943,-0.13958271,-0.26190847
561,1778416196.7891543,0.8493178,0.63558584,-0.07646788,-0.026725354,-0.10552697,-0.2733622
562,1778416196.7992916,0.8534644,0.68247885,-0.048051585,-0.057268616,-0.052381694,-0.33414328
563,1778416196.8094027,0.8534644,0.68247885,-0.048051585,-0.057268616,-0.052381694,-0.33414328
564,1778416196.8195317,0.8534644,0.68247885,-0.048051585,-0.057268616,-0.052381694,-0.33414328
565,1778416196.8296502,0.8534644,0.68247885,-0.048051585,-0.057268616,-0.052381694,-0.33414328
566,1778416196.8397555,0.7714474,0.556313,-0.026586918,-0.22204952,0.70356405,-0.50762904
567,1778416196.8498511,0.7751062,0.54259264,-0.06347931,-0.47143525,0.9859365,-0.26618454
568,1778416196.8600578,0.7751062,0.54259264,-0.06347931,-0.47143525,0.9859365,-0.26618454
569,1778416196.8701675,0.8190112,0.56137425,-0.15616766,-0.6693556,0.9184359,-0.11988231
570,1778416196.880296,0.8190112,0.56137425,-0.15616766,-0.6693556,0.9184359,-0.11988231
571,1778416196.890398,0.7741915,0.6340004,-0.17440042,-0.47525316,0.29733866,-0.111635625
572,1778416196.90063,0.7741915,0.6340004,-0.17440042,-0.47525316,0.29733866,-0.111635625
573,1778416196.91076,0.7645568,0.6301587,-0.15878975,-0.33215797,0.100029185,-0.1330159
574,1778416196.9208858,0.7240667,0.5836316,-0.048905294,0.17760907,-0.3213151,-0.09101892
575,1778416196.9310048,0.728823,0.57204556,0.015854584,0.24388795,-0.28909197,-0.03283401
576,1778416196.9411092,0.7382138,0.5584472,0.05335677,0.21410827,-0.13561209,0.04718934
577,1778416196.9512095,0.7605322,0.5564349,0.030367626,0.082619525,0.059253927,0.13072516
578,1778416196.9613204,0.7672399,0.57735074,0.0005488125,-0.0571159,0.1469131,0.16905695
579,1778416196.9714234,0.77498424,0.61088926,-0.028843146,-0.19272798,0.20311269,0.16920967
580,1778416196.9817271,0.77498424,0.61088926,-0.028843146,-0.19272798,0.20311269,0.16920967
581,1778416196.9920695,0.7854727,0.5860098,-0.05110054,-0.29901853,0.20845777,0.09437868
582,1778416197.0024598,0.7751062,0.54893446,-0.066894144,-0.31230485,0.1928807,0.111635625
583,1778416197.0125344,0.7751062,0.54893446,-0.066894144,-0.31230485,0.1928807,0.111635625
584,1778416197.0226665,0.76041025,0.5284454,-0.07451654,-0.3022256,0.16997325,0.15195273
585,1778416197.0329654,0.7374821,0.4909433,-0.06006448,-0.22479841,0.064599,0.3210097
586,1778416197.0431647,0.7401651,0.4861869,-0.019208437,-0.21792617,0.07422013,0.39813143
587,1778416197.0532558,0.74912906,0.4984437,0.013293459,-0.24388795,0.12385293,0.43753225
588,1778416197.0633588,0.7516902,0.5218597,0.030123709,-0.3220787,0.22800545,0.43600506
589,1778416197.0736,0.75980043,0.50570023,0.0034758127,-0.47112983,0.29275718,0.41813725
590,1778416197.0837321,0.76638615,0.46911272,-0.021647604,-0.6047566,0.25488353,0.4156938
591,1778416197.0938447,0.76967907,0.43350092,-0.03164819,-0.6973027,0.1563815,0.43844852
592,1778416197.1039755,0.7735207,0.39349857,-0.031892106,-0.6916522,-0.003970624,0.50426924
593,1778416197.1140852,0.7671179,0.38136372,-0.029391957,-0.54993147,-0.18325958,0.5858198
594,1778416197.1242254,0.75998336,0.38624203,-0.002134271,-0.3220787,-0.34116822,0.6469063
595,1778416197.1343808,0.75303173,0.3995355,0.05860098,-0.100334615,-0.4147775,0.678824
596,1778416197.1445029,0.7704718,0.39282778,0.123299874,0.020616703,-0.32986724,0.70463306
597,1778416197.154626,0.7944976,0.3875226,0.15921661,-0.01695151,-0.15836681,0.7359399
598,1778416197.164737,0.7986442,0.3793514,0.20354846,-0.24281894,0.1479821,0.7667886
599,1778416197.1748679,0.8240115,0.37977824,0.21171968,-0.5645922,0.5019785,0.7790059
600,1778416197.1850507,0.8378538,0.35776478,0.1606801,-0.79733187,0.7504479,0.7780896
601,1778416197.1952755,0.8599282,0.30532268,0.034941066,-0.93599826,0.8671232,0.79183406
602,1778416197.2054758,0.84681773,0.29349273,-0.043722063,-0.89980453,0.78969604,0.8170323
603,1778416197.2156057,0.84291506,0.28117493,-0.12537317,-0.7264715,0.5161811,0.84314674
604,1778416197.2257195,0.8491349,0.29087064,-0.15415533,-0.52198434,0.18936823,0.85154617
605,1778416197.2358513,0.887003,0.32215294,-0.100005835,-0.1731803,-0.30818152,0.84497935
606,1778416197.2459674,0.9089555,0.34904477,-0.0248795,0.0047342055,-0.5879578,0.81306165
607,1778416197.256163,0.9473723,0.36282605,0.041099958,0.1282817,-0.6898196,0.7654142
608,1778416197.266468,0.99036264,0.33215353,0.071772486,0.14584407,-0.72494435,0.7272351
609,1778416197.2766037,0.9987168,0.295627,0.10598179,0.100334615,-0.643852,0.7302894
610,1778416197.2867217,1.0051196,0.26007617,0.12561709,-0.021533,-0.37048978,0.76251256
611,1778416197.296844,1.0090222,0.25519782,0.12512925,-0.18448131,-0.071776666,0.79152864
612,1778416197.3069649,1.0093882,0.25903952,0.104701236,-0.45646906,0.25900686,0.80939645
613,1778416197.3170955,1.000973,0.26385686,0.07402871,-0.7287622,0.5403103,0.82970774
614,1778416197.3272445,1.0082905,0.25788093,-0.01103723,-0.91981035,0.67164636,0.82940227
615,1778416197.3373544,1.0015829,0.27434528,-0.07585809,-0.9605856,0.54275376,0.8197812
616,1778416197.3474865,1.0122542,0.2816018,-0.087566085,-0.8315403,0.29352075,0.7655669
617,1778416197.357593,1.0396339,0.30495682,-0.080065645,-0.65148777,0.089949906,0.6973027
618,1778416197.3678038,1.0529273,0.3079448,-0.062076796,-0.43676865,-0.13927728,0.5896377
619,1778416197.378034,1.0544518,0.29239509,-0.039148625,-0.29077184,-0.3052799,0.49373183
620,1778416197.388264,1.0520736,0.28702894,-0.024513626,-0.24220806,-0.39721513,0.43066
621,1778416197.3983734,1.0399997,0.26562527,-0.0024391667,-0.2359467,-0.46609017,0.36942077
622,1778416197.4086754,1.0326823,0.24129456,0.008415125,-0.2591596,-0.4792238,0.3549127
623,1778416197.418785,1.0215839,0.23501371,0.025977125,-0.30772337,-0.47525316,0.35414913
624,1778416197.4289067,1.0240841,0.2423312,0.03469715,-0.34406984,-0.452193,0.34223726
625,1778416197.4390247,1.0264013,0.23306239,0.023050126,-0.3559817,-0.4195117,0.33628133
626,1778416197.4491484,1.0341457,0.22763525,0.008476105,-0.37782016,-0.41813725,0.34025195
627,1778416197.4592826,1.0307308,0.2403189,0.005488125,-0.39385536,-0.43860126,0.32330042
628,1778416197.4694607,1.0321944,0.24470939,0.0059759584,-0.36911532,-0.47861293,0.28008172
629,1778416197.4795675,1.0370117,0.23300138,-0.0056710625,-0.3005457,-0.5271767,0.24266621
630,1778416197.489676,1.0416461,0.20659742,-0.037136313,-0.1282817,-0.65240407,0.20647246
631,1778416197.4998126,1.0483538,0.18659624,-0.04969802,-0.03283401,-0.72402805,0.20173825
632,1778416197.5099273,1.0511589,0.16122891,-0.061710916,0.0759,-0.80909103,0.20906863
633,1778416197.5200844,1.030243,0.16854642,-0.05292992,0.16646078,-0.8880454,0.20693061
634,1778416197.5301998,1.0043879,0.16372907,-0.054759294,0.16371189,-0.9193522,0.1957823
635,1778416197.5403216,0.9936555,0.14909407,-0.054637335,0.123547494,-0.9443977,0.19624045
636,1778416197.5504432,0.99030167,0.1164702,-0.029574897,0.07360926,-0.96593064,0.19303341
637,1778416197.560576,1.0005461,0.09750569,-0.020793896,0.036957346,-0.96929044,0.17623462
638,1778416197.570847,1.0005461,0.09750569,-0.020793896,0.036957346,-0.96929044,0.17623462
639,1778416197.5810335,1.0050586,0.08098034,0.012866604,0.08933904,-0.9272934,0.1684461
640,1778416197.5911403,0.9990827,0.06683317,-0.0045124586,0.22006421,-0.783282,0.172264
641,1778416197.601359,0.9990827,0.06683317,-0.0045124586,0.22006421,-0.783282,0.172264
642,1778416197.6114852,1.0057904,0.05116152,-0.025367333,0.2724459,-0.7498371,0.17165314
643,1778416197.6215773,1.0176814,0.00085370836,-0.06402813,0.35537085,-0.71776664,0.19792034
644,1778416197.6316767,1.0550615,-0.022562291,-0.07665081,0.4016439,-0.7107417,0.34055737
645,1778416197.641788,1.0643914,-0.0074394583,-0.064637914,0.37598756,-0.66599584,0.40698898
646,1778416197.6519933,1.0815265,-0.00060979166,-0.05939371,0.28725937,-0.5991061,0.47525316
647,1778416197.6621363,1.103479,0.006219875,-0.054637335,0.17898351,-0.5332854,0.5338962
648,1778416197.6722348,1.1381761,0.025672229,-0.04664906,0.12797627,-0.43661594,0.5847508
649,1778416197.6823328,1.1582383,0.052015226,-0.04396598,0.12980886,-0.35216382,0.6044512
650,1778416197.6924353,1.1762881,0.08366342,-0.05292992,0.14462234,-0.24846944,0.5726862
651,1778416197.7025487,1.185557,0.114823766,-0.06921136,0.15653422,-0.17379116,0.5016731
652,1778416197.7128015,1.185557,0.114823766,-0.06921136,0.15653422,-0.17379116,0.5016731
653,1778416197.7229533,1.1889108,0.124031626,-0.07854117,0.15714508,-0.10629055,0.40866885
654,1778416197.7331133,1.1765931,0.12055582,-0.10817704,0.06337727,0.0050396384,0.17608191
655,1778416197.7432168,1.16769,0.097200796,-0.11183579,-0.008857546,0.018784106,0.10354166
656,1778416197.7533634,1.156043,0.08646846,-0.10250599,-0.0711658,0.02031127,0.052687127
657,1778416197.7634869,1.1342735,0.0962861,-0.07719963,-0.09590584,0.046883907,-0.004428773
658,1778416197.7736015,1.1192117,0.09683492,-0.06786981,-0.08277224,0.10598512,-0.05955936
659,1778416197.7837405,1.103601,0.089517415,-0.065369666,-0.042913284,0.14782938,-0.101556346
660,1778416197.7938964,1.1017106,0.0851879,-0.051710334,0.049021937,0.20647246,-0.15622878
661,1778416197.8040268,1.097686,0.07585809,-0.07207738,0.16310102,0.27947086,-0.20005837
662,1778416197.8141682,1.0907953,0.07927292,-0.090554066,0.23457226,0.29825497,-0.22403483
663,1778416197.8243134,1.0907953,0.07927292,-0.090554066,0.23457226,0.29825497,-0.22403483
664,1778416197.8344407,1.0656719,0.09281029,-0.14793546,0.3921755,0.21426098,-0.30283645
665,1778416197.844759,1.0641475,0.083053626,-0.14982581,0.41722095,0.160963,-0.31535918
666,1778416197.85494,1.0671355,0.07043094,-0.13323948,0.4184427,0.12843442,-0.30192015
667,1778416197.8651597,1.0634158,0.08116327,-0.107506275,0.3811799,0.14553864,-0.27091873
668,1778416197.875417,1.0679282,0.091956586,-0.08470006,0.33169982,0.17959438,-0.26190847
669,1778416197.8855295,1.0709771,0.095920235,-0.061893854,0.29077184,0.24617869,-0.27122417
670,1778416197.8956606,1.0818924,0.10518907,-0.03280679,0.2779437,0.35231653,-0.28924468
671,1778416197.9057744,1.0864048,0.105250046,-0.012378771,0.2658791,0.4428773,-0.32330042
672,1778416197.9159317,1.0987227,0.09409086,0.023172084,0.20326541,0.65057147,-0.409127
673,1778416197.9260378,1.1131747,0.075675145,0.08646846,0.06414085,0.91782504,-0.5175556
674,1778416197.936124,1.1178701,0.03731925,0.15525296,-0.19898935,1.4077389,-0.6768387
675,1778416197.9462402,1.0882342,0.010061563,0.18665724,-0.38087448,1.826029,-0.795652
676,1778416197.9565,1.0149373,-0.012805625,0.1627534,-0.5992588,2.388025,-0.88193667
677,1778416197.9666169,0.9222489,-0.010000584,0.052686002,-0.8136725,2.7776043,-0.8425359
678,1778416197.9767473,0.86425775,-0.010305479,-0.12561709,-0.93538743,2.7878363,-0.7654142
679,1778416197.9868772,0.86938,-0.03152623,-0.25007555,-0.97494096,2.4394903,-0.63697976
680,1778416197.9971309,0.8824905,-0.00085370836,-0.26343,-0.86437434,1.8167132,-0.5007568
681,1778416198.0072532,0.90395516,0.054881252,-0.17049775,-0.6197228,1.1930199,-0.4147775
682,1778416198.0175831,0.94944566,0.07646788,-0.08171208,-0.45738536,0.9014844,-0.3837761
683,1778416198.0278153,0.9933506,0.11427496,0.08280971,-0.25137106,0.64950246,-0.37522396
684,1778416198.0379856,1.015547,0.17641273,0.21854934,-0.16294831,0.6960809,-0.41645738
685,1778416198.048231,1.0037171,0.19745055,0.24812423,-0.20112738,0.8481864,-0.43783766
686,1778416198.0583656,0.97810584,0.22513509,0.19940189,-0.29825497,1.0199922,-0.43295074
687,1778416198.0685174,0.99103343,0.22794013,0.14726469,-0.42638394,1.0436633,-0.39858958
688,1778416198.0786886,1.0165837,0.22251299,0.09909115,-0.51007247,0.9921979,-0.36361754
689,1778416198.0888512,1.0549396,0.22141537,0.0746385,-0.60139686,0.8576548,-0.31642818
690,1778416198.0989904,1.0749408,0.21800053,0.077931374,-0.6743952,0.7290677,-0.27305678
691,1778416198.1093931,1.0824412,0.23903833,0.098725274,-0.72356987,0.5652031,-0.23976462
692,1778416198.1195512,1.0540249,0.2830043,0.14476454,-0.6649268,0.4636467,-0.25518894
693,1778416198.1296613,0.9768253,0.37032646,0.16397297,-0.50411654,0.4289801,-0.28985557
694,1778416198.139764,0.96816623,0.35575247,0.19135264,0.045814894,0.27275133,-0.4008803
695,1778416198.1498544,0.995241,0.30404213,0.17549805,0.2759584,0.20631973,-0.40194935
696,1778416198.1599505,1.0199375,0.26452765,0.15714332,0.46975538,0.07742717,-0.3576616
697,1778416198.1700423,1.0199375,0.26452765,0.15714332,0.59574634,-0.012370021,-0.3210097
698,1778416198.1801472,1.0264623,0.27824792,0.18915738,0.6916522,-0.05513059,-0.2866485
699,1778416198.1902483,1.0285357,0.30068827,0.19970676,0.70646566,-0.07086037,-0.25381452
700,1778416198.2003746,1.0285357,0.30068827,0.19970676,0.70646566,-0.07086037,-0.25381452
701,1778416198.2105155,1.0204253,0.35581344,0.21934207,0.6936375,-0.027488936,-0.22174409
702,1778416198.220737,1.0142055,0.39233997,0.21867129,0.6795876,0.049785517,-0.22266038
703,1778416198.2309058,1.0141445,0.39868182,0.21135378,0.67363167,0.13545936,-0.24953845
704,1778416198.2411258,1.0257305,0.386425,0.19238928,0.6918049,0.18127427,-0.28389964
705,1778416198.2512605,1.048232,0.324897,0.14939895,0.8000808,0.116675265,-0.3352123
706,1778416198.2614796,1.0548176,0.28733385,0.110189356,0.86391616,0.02107485,-0.32498032
707,1778416198.2716997,1.0496954,0.27410138,0.07677277,0.98700553,-0.14355333,-0.28970283
708,1778416198.281796,1.0496954,0.27410138,0.07677277,1.1328496,-0.36025777,-0.2669481
709,1778416198.2919312,1.0132298,0.34331274,0.061893854,1.2118039,-0.5163339,-0.28023443
710,1778416198.3020623,1.0028024,0.38679087,0.10104248,1.2168436,-0.6032294,-0.3306308
711,1778416198.312222,0.98932606,0.40288937,0.13019052,1.1045971,-0.5856671,-0.4089743
712,1778416198.322329,0.9838379,0.41081664,0.18318142,0.944245,-0.49678615,-0.4831944
713,1778416198.3325393,0.9838379,0.41081664,0.18318142,0.944245,-0.49678615,-0.4831944
714,1778416198.3426416,0.94334775,0.36331388,0.2872119,0.41034874,-0.10445796,-0.6068946
715,1778416198.352833,0.91651684,0.29757833,0.30959123,0.18325958,0.08857546,-0.6262896
716,1778416198.3629355,0.8978573,0.24050182,0.30276155,0.11285736,0.22525656,-0.5887214
717,1778416198.3730547,0.88761276,0.20970736,0.23245259,0.2554944,0.3463606,-0.46395215
718,1778416198.383168,0.8750511,0.23196477,0.15013072,0.5505423,0.3399465,-0.312763
719,1778416198.3933485,0.8533425,0.28641915,0.079333894,0.8045095,0.29153544,-0.23457226
720,1778416198.4034724,0.8281581,0.36672872,-0.007622396,1.0273226,0.16249016,-0.20280726
721,1778416198.413566,0.81102294,0.42953727,-0.044880666,1.0589349,-0.0041233404,-0.22174409
722,1778416198.423676,0.77474034,0.50515145,-0.029635875,0.93951076,-0.17348573,-0.29779682
723,1778416198.4337678,0.7616908,0.5100907,-0.0033538544,0.7102836,-0.21685717,-0.38621956
724,1778416198.4438655,0.7392504,0.48374772,0.0031709166,0.45540005,-0.19624045,-0.4129449
725,1778416198.4539998,0.731811,0.46618572,-0.015183813,0.3199407,-0.17501289,-0.38591412
726,1778416198.4641106,0.72687167,0.45789257,-0.029209021,0.3277292,-0.16172658,-0.3368922
727,1778416198.4742186,0.70449233,0.50515145,-0.039148625,0.42058071,-0.14538592,-0.28771752
728,1778416198.48434,0.69967496,0.5456416,-0.0471369,0.49602258,-0.122783914,-0.27870727
729,1778416198.4944441,0.714066,0.5827169,-0.00798827,0.4222606,-0.06337727,-0.2875648
730,1778416198.5046573,0.71620035,0.6197923,0.0039026667,0.19318613,0.043982297,-0.32803464
731,1778416198.5148044,0.73711616,0.6202801,0.0018903542,0.076816306,0.07360926,-0.34391713
732,1778416198.524927,0.7490071,0.62808543,0.03585575,-0.3031419,0.11301007,-0.38652498
733,1778416198.5350482,0.75888574,0.60430354,0.07000408,-0.516792,0.1563815,-0.43203443
734,1778416198.5451846,0.7730939,0.55460554,0.09750569,-0.59315014,0.17852537,-0.43249258
735,1778416198.5553255,0.7810212,0.53173834,0.12970269,-0.56123245,0.2012801,-0.41691554
736,1778416198.5655198,0.7848629,0.50789547,0.13226382,-0.46746463,0.22968534,-0.39935315
737,1778416198.5756488,0.80760807,0.47319835,0.11976309,-0.31047225,0.2518292,-0.35811976
738,1778416198.5857646,0.8347438,0.4794792,0.087992944,-0.20586158,0.22708915,-0.31887165
739,1778416198.5959542,0.82888985,0.5252746,0.061954834,-0.2098322,0.1788308,-0.31642818
740,1778416198.606084,0.8263897,0.5457026,0.039941356,-0.32574388,0.10598512,-0.33490688
741,1778416198.6162739,0.81096196,0.5783874,0.067077085,-0.49464813,0.07422013,-0.35521814
742,1778416198.6263998,0.7566295,0.6389397,0.08976133,-0.7678576,0.14569137,-0.41722095
743,1778416198.6365294,0.6693683,0.6652827,0.07097975,-1.0648909,0.27397305,-0.4728097
744,1778416198.646638,0.61314553,0.6827837,0.034087352,-1.3335189,0.39003745,-0.4822781
745,1778416198.6568093,0.54783684,0.7262009,0.014574022,-1.5198327,0.44898596,-0.46318856
746,1778416198.6670096,0.49374834,0.7769356,0.0018293752,-1.7169895,0.47540587,-0.41706824
747,1778416198.67745,0.41782925,0.85639143,-0.005183229,-1.8767308,0.4448626,-0.3567453
748,1778416198.6876252,0.37398523,0.9046869,-0.019391375,-1.948202,0.3801109,-0.31215215
749,1778416198.6978745,0.35404503,0.93974996,-0.032197,-1.9543107,0.26206118,-0.24984388
750,1778416198.708019,0.3234945,1.0085344,-0.026647896,-1.8125899,0.020005837,-0.13164146
751,1778416198.7181394,0.3319706,1.0392679,-0.0029879792,-1.5384641,-0.1647809,-0.023365596
752,1778416198.7283237,0.34623972,1.0573177,0.01097625,-1.3381003,-0.26465738,0.054061573
753,1778416198.73844,0.37624148,1.0948809,0.049027253,-0.9263771,-0.44776422,0.20861048
754,1778416198.7486973,0.4013039,1.1187848,0.078480184,-0.6724099,-0.52641314,0.29657507
755,1778416198.75883,0.41965863,1.1573846,0.11903133,-0.38331795,-0.5713117,0.35842517
756,1778416198.7690794,0.43630594,1.1578724,0.13988622,-0.11988231,-0.5487097,0.36926803
757,1778416198.779219,0.45185563,1.1311026,0.140496,0.057421334,-0.5195409,0.37003163
758,1778416198.7894864,0.47710103,1.0852462,0.13336144,0.23105977,-0.5047274,0.38423425
759,1778416198.799861,0.5130787,1.0437804,0.1349469,0.35842517,-0.52839845,0.39752057
760,1778416198.810016,0.55161756,1.0086564,0.15641156,0.4286747,-0.5673411,0.4016439
761,1778416198.8201504,0.594242,0.9824354,0.20409729,0.5204572,-0.59681535,0.37995818
762,1778416198.830267,0.6080233,0.96590996,0.23623328,0.571159,-0.5885687,0.35246924
763,1778416198.8404152,0.6349151,0.92011464,0.26946694,0.66813385,-0.5216789,0.30390546
764,1778416198.8505144,0.6893695,0.8474884,0.27263784,0.77274454,-0.37140608,0.24190263
765,1778416198.8606124,0.714188,0.834256,0.26678386,0.7787005,-0.32330042,0.20769419
766,1778416198.870715,0.7452874,0.82645065,0.25452703,0.7663304,-0.26648995,0.1516473
767,1778416198.8808079,0.7452874,0.82645065,0.25452703,0.7272351,-0.23136522,0.09941832
768,1778416198.8909013,0.78467995,0.80443716,0.24525821,0.6575964,-0.18509217,0.023060163
769,1778416198.9009883,0.80010766,0.7678497,0.21867129,0.59513545,-0.15347989,-0.04596761
770,1778416198.9111083,0.80010766,0.7678497,0.21867129,0.59513545,-0.15347989,-0.04596761
771,1778416198.9212058,0.85230577,0.69217455,0.181474,0.5699373,-0.24495697,-0.089949906
772,1778416198.9313421,0.85230577,0.69217455,0.181474,0.5699373,-0.24495697,-0.089949906
773,1778416198.9415066,0.8848077,0.7091267,0.14866722,0.7640397,-0.34865135,-0.150731
774,1778416198.9516284,0.8848077,0.7091267,0.14866722,0.7640397,-0.34865135,-0.150731
775,1778416198.961728,0.8862102,0.74321413,0.12610492,0.77472985,-0.34513888,-0.302531
776,1778416198.9718645,0.88078314,0.73931146,0.1144579,0.6940956,-0.30604348,-0.38240165
777,1778416198.981982,0.87627065,0.7144319,0.10293283,0.54565537,-0.24740042,-0.45921794
778,1778416198.992242,0.86889213,0.68564975,0.09829842,0.38789943,-0.1863139,-0.5039638
779,1778416199.0023768,0.87712437,0.65003794,0.09994486,0.27412578,-0.1301143,-0.5027421
780,1778416199.0124826,0.8707215,0.63790303,0.09811548,0.18967366,-0.09590584,-0.4810564
781,1778416199.0228643,0.85017157,0.6325369,0.082626775,0.15958855,-0.09697486,-0.4538729
782,1778416199.0329695,0.83206075,0.62564623,0.072016396,0.21670444,-0.1226312,-0.43371433
783,1778416199.0430954,0.8149866,0.6149749,0.061954834,0.311694,-0.118202426,-0.39171734
784,1778416199.05323,0.80370545,0.6086331,0.059088815,0.35094208,-0.10644327,-0.35796702
785,1778416199.0634866,0.80022967,0.61345047,0.04549046,0.35155296,-0.09437868,-0.31016684
786,1778416199.0736392,0.7914486,0.63393945,0.038599815,0.3202461,-0.07238753,-0.28909197
787,1778416199.0837693,0.78839964,0.64412296,0.011281146,0.24281894,-0.062308256,-0.2857322
788,1778416199.093899,0.787363,0.63387847,0.008902958,0.13194689,-0.107665,-0.29825497
789,1778416199.1040854,0.7854727,0.61101127,0.026099084,0.059253927,-0.11927144,-0.28893927
790,1778416199.1142037,0.79132664,0.58180225,0.039880376,0.02443461,-0.105832405,-0.25060746
791,1778416199.1244276,0.79132664,0.58180225,0.039880376,0.02443461,-0.105832405,-0.25060746
792,1778416199.13454,0.7754111,0.5682039,0.07646788,0.0777326,0.0061086523,-0.09315695
793,1778416199.1446674,0.7648007,0.5886929,0.08274873,0.13912456,0.080634214,-0.05207626
794,1778416199.1547904,0.7535196,0.5789362,0.08037054,0.1919644,0.14782938,-0.02321288
795,1778416199.1649246,0.74662894,0.5760092,0.06097917,0.21120666,0.23579398,0.02076942
796,1778416199.1750562,0.73528683,0.59155893,0.03561183,0.18005253,0.28053987,0.040775254
797,1778416199.1853268,0.7341892,0.5871684,0.019635292,0.094225965,0.2967278,0.06001751
798,1778416199.1956043,0.7341892,0.5871684,0.019635292,-0.004886922,0.30940324,0.08307768
799,1778416199.2057164,0.7253472,0.56326455,0.015915563,-0.075289145,0.27962357,0.104610674
800,1778416199.2158175,0.73278666,0.5438122,0.038355898,-0.118966006,0.2171626,0.13545936
801,1778416199.2259269,0.7596175,0.5116762,0.05793021,-0.1151481,0.14844026,0.19898935
802,1778416199.2360501,0.7596175,0.5116762,0.05793021,-0.1151481,0.14844026,0.19898935
803,1778416199.2461936,0.76248354,0.5132617,0.13281263,0.09514226,0.17501289,0.3462079
804,1778416199.256459,0.7555929,0.52734786,0.12159246,0.22311853,0.21777347,0.38652498
805,1778416199.2665994,0.75089747,0.5345434,0.06219875,0.31429017,0.19792034,0.4063781
806,1778416199.2767248,0.73894554,0.5680819,0.0041465834,0.41233405,0.024892759,0.3733914
807,1778416199.2868533,0.74711674,0.5524712,-0.012805625,0.44135013,-0.1151481,0.32635477
808,1778416199.2971346,0.74723876,0.54259264,-0.081346214,0.42287147,-0.2947425,0.27488935
809,1778416199.3074102,0.7341282,0.497651,0.13006857,0.37995818,-0.17745635,0.2779437
810,1778416199.3175457,0.749373,0.44496498,0.087566085,0.29153544,-0.046731193,0.34513888
811,1778416199.3276765,0.7864483,0.38483953,0.02695279,-0.010231993,0.35414913,0.37568212
812,1778416199.3377903,0.70650464,0.41606086,0.005183229,-0.27198774,0.27229318,0.4552473
813,1778416199.347916,0.7342501,0.38776654,0.011098208,-0.36483926,0.23548855,0.6432411
814,1778416199.3580291,0.7501657,0.38020512,-0.10518907,-0.32360587,0.07849618,0.7478518
815,1778416199.3682823,0.7462021,0.39776713,-0.12086072,-0.23075435,-0.2041817,0.72326446
816,1778416199.3786716,0.76297134,0.4036211,-0.09079798,-0.038789943,-0.5465717,0.7110472
817,1778416199.3888047,0.76638615,0.40703595,-0.09274931,0.17867808,-0.8866709,0.708451
818,1778416199.3990228,0.769923,0.38422972,-0.051283482,0.3623958,-1.1734722,0.68416905
819,1778416199.4093344,0.82370657,0.29623678,0.093054205,0.53985214,-1.3035865,0.8045095
820,1778416199.419452,0.82370657,0.29623678,0.093054205,0.53985214,-1.3035865,0.8045095
821,1778416199.4295623,0.84291506,0.28263843,0.13830076,0.52503866,-1.1418599,0.9236283
822,1778416199.4396734,0.86602616,0.3031884,0.16921718,0.4213443,-0.8312349,1.0474812
823,1778416199.4497695,0.8880396,0.35124,0.07982173,0.23762658,-0.4176791,1.1122329
824,1778416199.4598897,0.8880396,0.35124,0.07982173,0.010842858,-0.0571159,1.1420126
825,1778416199.4699917,0.8921862,0.354167,-0.14641099,-0.23197608,-0.021991149,1.1053606
826,1778416199.4801078,0.93048114,0.38136372,-0.19196242,-0.23197608,-0.021991149,1.1053606
827,1778416199.4902098,0.942372,0.39557186,-0.16531453,-0.17898351,-0.59635717,0.9130908
828,1778416199.500333,0.942372,0.39557186,-0.16531453,-0.094989546,-0.7984009,0.8190176
829,1778416199.510439,0.9704834,0.3313608,-0.08287069,0.015882496,-0.9763154,0.7283041
830,1778416199.5205393,0.9704834,0.3313608,-0.08287069,0.015882496,-0.9763154,0.7283041
831,1778416199.5307,0.97798395,0.29635876,-0.032562874,0.07345655,-1.0067059,0.68966687
832,1778416199.5408297,0.971703,0.26763758,-0.013415418,0.08827003,-0.9428705,0.6774496
833,1778416199.5509524,0.9584096,0.24373372,-0.023903834,-0.008093964,-0.6974554,0.72036284
834,1778416199.5610704,0.96194637,0.24086772,-0.006890646,-0.1470658,-0.45066583,0.7490735
835,1778416199.5711694,0.9799352,0.24080674,-0.016159479,-0.27580565,-0.26542094,0.7530441
836,1778416199.5812926,0.9799352,0.24080674,-0.016159479,-0.27580565,-0.26542094,0.7530441
837,1778416199.5914142,0.9963996,0.23879443,-0.036160648,-0.45921794,-0.06429356,0.72586066
838,1778416199.60175,1.0056685,0.22354963,-0.11104306,-0.6942484,0.11071932,0.6623306
839,1778416199.6118295,1.0056685,0.22354963,-0.11104306,-0.6942484,0.11071932,0.6623306
840,1778416199.6219351,1.015669,0.19909698,-0.14445965,-0.68768156,0.05024367,0.61941737
841,1778416199.632065,1.0234133,0.18153499,-0.15171617,-0.6435465,-0.016340645,0.5858198
842,1778416199.6422474,1.0312797,0.14891112,-0.12043386,-0.51893,-0.14477506,0.5122105
843,1778416199.6523755,1.0211571,0.09488358,-0.082077965,-0.40011674,-0.22876903,0.42638394
844,1778416199.6624916,1.0157909,0.091529734,-0.079638794,-0.42714754,-0.26358834,0.40698898
845,1778416199.6726444,1.0148153,0.06280854,-0.065369666,-0.47616947,-0.2837469,0.37201694
846,1778416199.6827588,0.9968874,0.05067369,-0.044758707,-0.5346598,-0.28588495,0.34574974
847,1778416199.6928806,0.97792286,0.06823569,-0.04481969,-0.5386304,-0.300393,0.33108896
848,1778416199.703023,0.97792286,0.06823569,-0.04481969,-0.5386304,-0.300393,0.33108896
849,1778416199.7131298,0.9469455,0.0851879,-0.09683492,-0.31703907,-0.40653083,0.34330627
850,1778416199.7232292,0.95036036,0.0954324,-0.10567689,-0.19135354,-0.495259,0.35414913
851,1778416199.7334602,0.95036036,0.0954324,-0.10567689,-0.19135354,-0.495259,0.35414913
852,1778416199.7438843,0.9720689,0.1261659,-0.064089105,0.040317107,-0.5326745,0.3652974
853,1778416199.7540035,0.9841428,0.10177423,-0.08152915,0.05299256,-0.48930305,0.4007276
854,1778416199.764166,1.0132298,0.110006414,-0.107933134,-0.01038471,-0.45875978,0.47968194
855,1778416199.7742825,1.033231,0.12653178,-0.11104306,-0.07666359,-0.44516805,0.50976706
856,1778416199.784404,1.0445122,0.14988679,-0.112689495,-0.14431691,-0.42913285,0.52015173
857,1778416199.7945483,1.065428,0.16696097,-0.12256813,-0.1591304,-0.44104472,0.50808716
858,1778416199.8047822,1.0957347,0.17129049,-0.11348223,-0.11957687,-0.45814893,0.4746423
859,1778416199.8149168,1.1176872,0.17421748,-0.10482319,-0.020463986,-0.44913867,0.43203443
860,1778416199.8250854,1.1250046,0.18055932,-0.10585984,0.040011674,-0.43371433,0.4082107
861,1778416199.8352952,1.1317734,0.18635234,-0.1243975,0.123242065,-0.42455134,0.3510948
862,1778416199.845397,1.1345785,0.17659567,-0.13897152,0.17577648,-0.41523564,0.25885415
863,1778416199.8555155,1.1337247,0.12823918,-0.18342534,0.1910481,-0.43218717,0.22678372
864,1778416199.865656,1.126651,0.06823569,-0.21367101,0.16065755,-0.5224425,0.27229318
865,1778416199.8757617,1.115431,0.056588665,-0.20629252,0.11346822,-0.5910121,0.32406402
866,1778416199.8858814,1.1112235,0.06982114,-0.17714448,0.050549097,-0.6207918,0.36010507
867,1778416199.8960333,1.1109794,0.08640748,-0.14366692,0.005955936,-0.59040123,0.36300668
868,1778416199.9061465,1.1130528,0.08793196,-0.11744587,-0.08597928,-0.47891834,0.32620203
869,1778416199.9164186,1.1184189,0.06506477,-0.11488476,-0.12950343,-0.37491855,0.27672195
870,1778416199.926553,1.1250657,0.024574606,-0.13073933,-0.12812899,-0.28817567,0.24495697
871,1778416199.9366708,1.1205531,0.010854292,-0.14177656,-0.107359566,-0.24724771,0.23014349
872,1778416199.9467802,1.1020155,0.004085604,-0.14945993,-0.08307768,-0.18112154,0.20066923
873,1778416199.9569602,1.0902466,-0.005183229,-0.15763116,-0.0795652,-0.16417004,0.17241672
874,1778416199.9670854,1.0848193,-0.021769563,-0.1604362,-0.05681047,-0.14752395,0.13561209
875,1778416199.9773054,1.0721967,-0.029087063,-0.15110639,-0.02076942,-0.13072516,0.088728175
876,1778416199.987537,1.0604278,-0.038355898,-0.15635058,0.01282817,-0.11530081,0.051618114
877,1778416199.9976482,1.056952,-0.05683258,-0.15817997,0.052687127,-0.10949759,0.018325957
878,1778416200.0077753,1.0374995,-0.057320416,-0.15226498,0.11652254,-0.0954477,-0.027641652
879,1778416200.0179079,1.0087174,-0.04317325,-0.16147284,0.1611157,-0.098043874,-0.061086524
880,1778416200.0280373,0.9980461,-0.038294915,-0.15708233,0.18997909,-0.106595986,-0.076052725
881,1778416200.0381472,0.9970704,-0.045124583,-0.155131,0.22159137,-0.10445796,-0.07269296
882,1778416200.0483701,1.0135957,-0.04853942,-0.16147284,0.27397305,-0.102319926,-0.054825157
883,1778416200.0584946,1.0199986,-0.020245085,-0.15970443,0.33215797,-0.11224649,-0.050549097
884,1778416200.0686178,1.0385972,0.010427438,-0.1575092,0.38896844,-0.12217305,-0.06093381
885,1778416200.0787387,1.0767092,0.023598937,-0.14220342,0.44241914,-0.09117164,-0.07498371
886,1778416200.0889783,1.10354,0.03866079,-0.14287418,0.45998153,0.006414085,-0.08109236
887,1778416200.0991278,1.1186019,0.061527982,-0.15714332,0.42638394,0.09590584,-0.0842994
888,1778416200.1092565,1.13281,0.082016975,-0.15299673,0.35888332,0.18310685,-0.10552697
889,1778416200.119398,1.1270779,0.10884781,-0.14238635,0.22449298,0.3575089,-0.17363845
890,1778416200.1295664,1.1215899,0.09226148,-0.1636681,0.06582073,0.4981606,-0.23060162
891,1778416200.139701,1.1147602,0.09128582,-0.16318026,0.013897184,0.54076844,-0.23854288
892,1778416200.1498091,1.0777458,0.117140986,-0.17098558,-0.10430524,0.64751714,-0.23350324
893,1778416200.160174,1.065367,0.12390967,-0.20696329,-0.19639318,0.6769914,-0.23380867
894,1778416200.1703792,1.0717698,0.12195834,-0.19482844,-0.19379699,0.56596667,-0.2695443
895,1778416200.1804793,1.0717698,0.12195834,-0.19482844,-0.19379699,0.56596667,-0.2695443
896,1778416200.1906104,1.0710381,0.12153149,-0.14665489,-0.14569137,0.54641896,-0.29932398
897,1778416200.2007542,1.0580496,0.11384811,-0.11982407,-0.12232576,0.6427829,-0.32513303
898,1778416200.2108848,1.0438414,0.08994427,-0.12494631,-0.12232576,0.6427829,-0.32513303
899,1778416200.221006,1.0310968,0.08994427,-0.13561767,-0.16661349,0.6273586,-0.26725355
900,1778416200.231095,1.0467684,0.105067104,-0.12750745,-0.16783522,0.61407226,-0.2574797
901,1778416200.2412415,1.0467684,0.105067104,-0.12750745,-0.16783522,0.61407226,-0.2574797
902,1778416200.251384,1.0780507,0.14714272,-0.03298973,-0.16310102,0.7322747,-0.33444872
903,1778416200.261673,1.0780507,0.14714272,-0.03298973,-0.16310102,0.7322747,-0.33444872
904,1778416200.2718148,1.0795752,0.15055756,-0.031099375,-0.15302174,0.9818132,-0.44303003
905,1778416200.281907,1.0987227,0.10610375,-0.073723815,-0.14935656,1.0106765,-0.45646906
906,1778416200.29209,1.1087842,0.10500612,-0.10488417,-0.16691893,1.0059423,-0.39629883
907,1778416200.302248,1.1199434,0.13567865,-0.1308613,-0.20570888,0.9579894,-0.36178493
908,1778416200.3123553,1.1572627,0.19177948,-0.092932254,-0.29520062,0.90178984,-0.42821655
909,1778416200.3226354,1.1572627,0.19177948,-0.092932254,-0.29520062,0.90178984,-0.42821655
910,1778416200.3327656,1.1600677,0.25714916,-0.051039565,-0.3662137,0.97203934,-0.5314528
911,1778416200.3429372,1.0810387,0.32197002,-0.09537142,-0.50594914,1.0848967,-0.86391616
912,1778416200.3530774,1.0810387,0.32197002,-0.09537142,-0.50594914,1.0848967,-0.86391616
913,1778416200.3632102,1.0212182,0.20092636,-0.20043853,-0.36575556,0.53893584,-1.0864239
914,1778416200.3733432,1.0456707,0.17171735,-0.17263202,-0.1872302,0.20738874,-1.1058189
915,1778416200.3835008,1.0660378,0.17720546,-0.10122541,-0.052381694,0.047494773,-1.1171198
916,1778416200.393611,1.0735382,0.19787739,0.005610083,0.05177083,0.055436023,-1.14018
917,1778416200.4037485,1.0387192,0.2374529,0.0482955,0.04550946,0.23396139,-1.1337659
918,1778416200.4138532,1.0035952,0.2711134,0.030245667,-0.0,0.30405816,-1.1258247
919,1778416200.4239786,0.9439575,0.31635994,-0.021403689,-0.065973446,0.2695443,-1.1472049
920,1778416200.4341204,0.9439575,0.31635994,-0.021403689,-0.065973446,0.2695443,-1.1472049
921,1778416200.4442542,0.9226148,0.27824792,-0.08573671,0.05222898,0.020463986,-1.189202
922,1778416200.454373,0.9377987,0.24855109,-0.050612707,0.15363261,-0.08032878,-1.1794281
923,1778416200.4644744,0.95255554,0.25446606,-0.032684833,0.18341228,-0.064751714,-1.1307116
924,1778416200.4745936,0.9326154,0.28373605,-0.032318957,0.16584991,-0.022449298,-1.0937542
925,1778416200.4847667,0.8834052,0.34026375,-0.05585692,0.12018774,0.021227567,-1.0650436
926,1778416200.494919,0.8513911,0.3664848,-0.12153149,0.08903361,-0.111177474,-1.0809261
927,1778416200.5052078,0.8440126,0.3474593,-0.12866604,0.12018774,-0.28985557,-1.1242975
928,1778416200.515316,0.860538,0.28312626,-0.11817763,0.21975878,-0.46288314,-1.1462886
929,1778416200.5254416,0.8852955,0.22123243,-0.10671354,0.30589077,-0.54061574,-1.1007792
930,1778416200.5356555,0.8990159,0.1832424,-0.08512692,0.3736968,-0.5325218,-0.98639464
931,1778416200.5457692,0.8990159,0.1832424,-0.08512692,0.3736968,-0.5325218,-0.98639464
932,1778416200.5558987,0.8717582,0.29288295,-0.115799434,0.26313022,-0.41126502,-0.7134906
933,1778416200.5660815,0.8374269,0.38599813,-0.10360361,0.20021108,-0.399964,-0.70188415
934,1778416200.5762944,0.8263287,0.41624376,-0.086712375,0.15897769,-0.36957347,-0.72341716
935,1778416200.5864105,0.79925394,0.42026842,-0.048661377,0.06093381,-0.3016147,-0.732122
936,1778416200.5965326,0.7949854,0.3969134,-0.018842563,-0.0777326,-0.23441954,-0.6939429
937,1778416200.606686,0.7877899,0.36727753,0.009085896,-0.19410244,-0.15424347,-0.6094908
938,1778416200.6168156,0.78138703,0.34191018,0.005854,-0.23289238,-0.117744274,-0.50869805
939,1778416200.626929,0.78285056,0.34191018,0.0039026667,-0.21242839,-0.10705414,-0.41462478
940,1778416200.6371052,0.80577874,0.37599754,-0.006097917,-0.094225965,-0.08231409,-0.2554944
941,1778416200.6472785,0.810901,0.4476481,0.015305771,0.0786489,0.024129177,-0.13225232
942,1778416200.6574566,0.8035835,0.49978524,-0.005914979,0.15607607,0.105832405,-0.06811147
943,1778416200.6675828,0.79632694,0.5597278,-0.021769563,0.1423316,0.16737708,-0.026267206
944,1778416200.677849,0.79675376,0.58259493,-0.040917024,0.06001751,0.19074267,-0.018020526
945,1778416200.6880007,0.79675376,0.58259493,-0.040917024,0.06001751,0.19074267,-0.018020526
946,1778416200.6981168,0.7973026,0.60015696,-0.03664848,-0.12996158,0.10247265,-0.041996986
947,1778416200.7085345,0.76632524,0.55594707,0.024574606,-0.23900102,-0.03313944,-0.075289145
948,1778416200.7188447,0.763947,0.49167505,0.056588665,-0.23411411,-0.08506299,-0.042455133
949,1778416200.7291338,0.7811431,0.43130565,0.10403045,-0.14446963,-0.098807454,0.07895433
950,1778416200.7392735,0.7734598,0.4366718,0.12012896,-0.047494773,-0.05222898,0.1685988
951,1778416200.7495117,0.77431345,0.4985047,0.07982173,0.17287487,0.05757405,0.2938262
952,1778416200.7596414,0.7882777,0.5320433,0.029940773,0.27015516,0.09208794,0.3051272
953,1778416200.7700152,0.80809593,0.53960466,-0.084456146,0.16982053,0.046731193,0.23640485
954,1778416200.7800987,0.825475,0.50978583,-0.11110405,0.009773844,-0.045356743,0.18524489
955,1778416200.7902114,0.825475,0.50978583,-0.11110405,0.009773844,-0.045356743,0.18524489
956,1778416200.8003118,0.86834335,0.45618513,-0.09244442,-0.20051652,-0.10567969,0.18234327
957,1778416200.81059,0.86242837,0.47045428,-0.023964813,-0.550695,-0.05177083,0.30833423
958,1778416200.820693,0.8294386,0.49344343,-0.0030489585,-0.66446865,0.04046982,0.4025602
959,1778416200.8307998,0.8294386,0.49344343,-0.0030489585,-0.66446865,0.04046982,0.4025602
960,1778416200.8409348,0.7920584,0.54125106,0.0070126047,-0.7819075,0.14508049,0.5056437
961,1778416200.8510675,0.7382138,0.64076906,0.012500729,-0.9447031,0.21685717,0.54382277
962,1778416200.861304,0.67833227,0.7031508,0.010854292,-1.0428997,0.26328292,0.51068336
963,1778416200.8715098,0.58424145,0.7680326,-0.02274523,-1.0931433,0.24419338,0.4708244
964,1778416200.8816056,0.53405553,0.7671179,-0.017683959,-1.0806206,0.03436117,0.39568797
965,1778416200.891859,0.5081394,0.7544343,-0.023355022,-0.9925033,-0.11209377,0.43371433
966,1778416200.9019744,0.5039318,0.76565444,0.0009146876,-0.8784242,-0.2284636,0.5145013
967,1778416200.9121046,0.5003341,0.8213284,0.032745812,-0.675617,-0.34422258,0.6064365
968,1778416200.9222088,0.5040538,0.8837711,0.06543065,-0.43035457,-0.40454552,0.6626361
969,1778416200.9323106,0.5197864,0.9178584,0.07488242,-0.2144137,-0.441961,0.678824
970,1778416200.9425795,0.5197864,0.9178584,0.07488242,-0.2144137,-0.441961,0.678824
971,1778416200.9527538,0.55649585,0.94322574,0.09159071,-0.12232576,-0.4569272,0.68630713
972,1778416200.9628572,0.60448647,0.99103343,0.11494574,-0.0035124752,-0.44073927,0.6632469
973,1778416200.9729915,0.67631996,1.0412192,0.12848312,0.06505715,-0.30833423,0.5354234
974,1778416200.9831233,0.7001628,1.0426219,0.12647079,0.039095376,-0.20097467,0.41233405
975,1778416200.9932477,0.7108951,1.0284746,0.13525179,0.0070249503,-0.10919216,0.30375275
976,1778416201.0033545,0.7059558,0.9754228,0.14336202,-0.024892759,0.08032878,0.15515977
977,1778416201.013485,0.7057729,0.9212733,0.12860507,-0.050396383,0.20112738,0.08827003
978,1778416201.0236218,0.70449233,0.8622454,0.096895896,-0.07819075,0.2929099,0.03970624
979,1778416201.0337617,0.70327276,0.81827945,0.06988213,-0.07345655,0.33261612,0.005497787
980,1778416201.0438917,0.70558995,0.7973026,0.053478733,-0.054367006,0.33368513,-0.016646078
981,1778416201.0539927,0.72101766,0.74754363,0.034758125,0.001985312,0.28512135,-0.057726767
982,1778416201.064123,0.7490681,0.70022374,0.018903542,0.037873644,0.21746802,-0.06918049
983,1778416201.074427,0.78315544,0.68022263,0.02274523,0.09773844,0.106137834,-0.07971791
984,1778416201.0846174,0.81212056,0.67686874,0.05573496,0.15409076,0.031001411,-0.1085813
985,1778416201.0947323,0.82730436,0.6685756,0.07762648,0.21563543,0.03436117,-0.14950927
986,1778416201.1048632,0.8351097,0.64912325,0.08793196,0.25320363,0.08231409,-0.17440203
987,1778416201.1150575,0.831085,0.6154627,0.077931374,0.2742785,0.16783522,-0.18417588
988,1778416201.1251848,0.8455371,0.5783874,0.06402813,0.26648995,0.25228736,-0.15592335
989,1778416201.1354227,0.848891,0.57003325,0.05335677,0.2648101,0.31138855,-0.11285736
990,1778416201.1455355,0.8473056,0.58704644,0.021647604,0.27870727,0.34880406,-0.07880162
991,1778416201.1556668,0.84230524,0.6274147,-0.016525354,0.32482758,0.33399057,-0.07437284
992,1778416201.1657786,0.84230524,0.6274147,-0.016525354,0.32482758,0.33399057,-0.07437284
993,1778416201.1759133,0.8512692,0.649733,-0.078480184,0.49113566,0.09789115,-0.16691893
994,1778416201.186051,0.86578226,0.6243657,-0.0851879,0.58093286,-0.03772093,-0.20219639
995,1778416201.1963186,0.8711484,0.59899837,-0.083602436,0.64476824,-0.11285736,-0.21151209
996,1778416201.2064655,0.8867591,0.58588785,-0.07091877,0.70280045,-0.15653422,-0.19639318
997,1778416201.2166004,0.8776122,0.60784036,-0.060308397,0.71883565,-0.1554652,-0.17928895
998,1778416201.226726,0.8630382,0.629305,-0.055552024,0.711658,-0.1385137,-0.18295415
999,1778416201.2369158,0.8436468,0.64394003,-0.049210187,0.6814202,-0.08170322,-0.20326541
