id,timestamp,acc_x,acc_y,acc_z,gyro_x,gyro_y,gyro_z
0,1778415513.9375846,-0.118604474,0.500578,0.62918305,-0.6426302,-0.113926366,-0.66737026
1,1778415513.9477894,-0.12915388,0.5052124,0.47838157,-0.7829765,-0.1638646,-0.71868294
2,1778415513.9579039,-0.12683667,0.46405149,0.38038805,-0.9242391,-0.44043383,-0.7298313
3,1778415513.9680524,-0.12683667,0.46405149,0.38038805,-0.9242391,-0.44043383,-0.7298313
4,1778415513.9781675,-0.12683667,0.46405149,0.38038805,-0.9242391,-0.44043383,-0.7298313
5,1778415513.9882963,-0.12683667,0.46405149,0.38038805,-0.9242391,-0.44043383,-0.7298313
6,1778415513.9984126,0.190255,0.228306,0.34556895,-1.5057828,-1.2754866,-0.5343544
7,1778415514.008566,0.25330746,0.27965048,0.18885247,-1.5005904,-0.871552,-0.86177814
8,1778415514.018705,0.3312998,0.17452239,0.05250306,-1.5726726,-1.0532844,-0.9285152
9,1778415514.029019,0.28855342,0.2552588,-0.046527103,-1.6410894,-1.3014483,-1.073901
10,1778415514.0391886,0.3389222,0.30007848,-0.029026084,-1.8419114,-1.6756034,-1.3990341
11,1778415514.0493095,0.44685537,0.13708118,0.16324124,-2.0470095,-1.7698293,-1.5916094
12,1778415514.05943,0.35178882,0.10049367,0.35209373,-2.2371411,-1.3200798,-1.7090483
13,1778415514.0695145,0.37258273,0.010122542,0.2639788,-2.3112087,-1.0338894,-1.767844
14,1778415514.0796363,0.37258273,0.010122542,0.2639788,-2.3112087,-1.0338894,-1.767844
15,1778415514.089752,0.37258273,0.010122542,0.2639788,-2.3112087,-1.0338894,-1.767844
16,1778415514.0999506,0.3691069,-0.13165402,0.04256346,-2.1591032,-1.5725199,-1.3993396
17,1778415514.1101892,0.66028243,-0.010549396,0.032014064,-1.9191859,-2.2805126,-1.3796391
18,1778415514.1203153,0.971764,0.06695513,-0.083480485,-1.9268217,-3.1320589,-1.3941472
19,1778415514.1304524,1.0973811,0.013110521,-0.17848602,-1.7814357,-3.987881,-1.2782356
20,1778415514.1405568,0.6048524,0.2503805,0.8468787,-1.5856534,-3.8563924,-1.5589281
21,1778415514.1508014,0.9591413,0.18287653,0.8537083,-1.7041613,-2.942996,-2.2954788
22,1778415514.1609294,1.2648299,0.25507587,1.0228646,-1.7041613,-2.942996,-2.2954788
23,1778415514.1712146,1.3397123,0.47643024,1.0869538,-1.7886134,-2.561358,-2.3539693
24,1778415514.181464,1.3397123,0.47643024,1.0869538,-1.7886134,-2.561358,-2.3539693
25,1778415514.191794,1.3397123,0.47643024,1.0869538,-1.7886134,-2.561358,-2.3539693
26,1778415514.2019002,2.0650594,1.0379874,2.3922737,-1.9161316,-2.424677,-3.2983668
27,1778415514.2122452,2.0650594,1.0379874,2.3922737,-1.9161316,-2.424677,-3.2983668
28,1778415514.2223918,2.1231117,1.1334198,2.637166,-1.4340062,-2.9955304,-3.7517817
29,1778415514.232525,2.251473,1.0842706,3.2216513,-0.65377855,-3.7116172,-4.2930083
30,1778415514.242626,2.3819683,0.92920053,4.2339053,0.42821655,-3.8852556,-4.9194508
31,1778415514.2527184,2.3819683,0.92920053,4.2339053,0.42821655,-3.8852556,-4.9194508
32,1778415514.2628176,2.1747,0.96566606,4.372084,1.7281377,-3.1143436,-4.695263
33,1778415514.2731035,2.1747,0.96566606,4.372084,1.7281377,-3.1143436,-4.695263
34,1778415514.283465,2.1747,0.96566606,4.372084,1.7281377,-3.1143436,-4.695263
35,1778415514.2938275,2.1747,0.96566606,4.372084,1.7281377,-3.1143436,-4.695263
36,1778415514.3039494,2.2108607,1.4097164,4.129509,3.9521453,-4.134947,-5.031086
37,1778415514.3140948,2.1918962,1.3628234,4.0646276,4.582711,-3.9371793,-5.7786326
38,1778415514.324203,2.1273193,1.2894045,3.880958,4.7303877,-3.6184602,-6.1136923
39,1778415514.334325,2.0131662,1.1160408,3.6625917,4.7403145,-2.9167287,-6.496857
40,1778415514.3444462,1.8270577,0.9084677,3.4003813,4.5480447,-2.0810652,-6.8045807
41,1778415514.3545997,1.6386932,0.53820217,2.631434,4.3397393,-1.4963144,-7.0047917
42,1778415514.3647346,1.2866604,0.38947394,2.7332692,4.3463063,-1.3756685,-7.018078
43,1778415514.3750944,1.2866604,0.38947394,2.7332692,4.3463063,-1.3756685,-7.018078
44,1778415514.3854163,1.2866604,0.38947394,2.7332692,4.3463063,-1.3756685,-7.018078
45,1778415514.3957214,1.2866604,0.38947394,2.7332692,4.3463063,-1.3756685,-7.018078
46,1778415514.405838,0.878222,-0.40795064,1.7988245,5.297576,-1.3011429,-6.560082
47,1778415514.4161503,0.86492854,-0.49618748,1.54259,5.917757,-1.7724255,-6.4936504
48,1778415514.426298,0.86492854,-0.49618748,1.54259,6.2745023,-2.1061106,-6.5246515
49,1778415514.4364052,0.9703005,-0.50679785,1.3836783,6.3053513,-2.2366831,-6.770983
50,1778415514.4466162,0.9840818,-0.5660086,1.2565367,5.7975693,-2.0879374,-6.921103
51,1778415514.4567971,0.9843257,-0.63759816,1.0589643,5.1541753,-2.0205896,-7.016093
52,1778415514.466955,0.9843257,-0.63759816,1.0589643,5.1541753,-2.0205896,-7.016093
53,1778415514.4770834,0.9938995,-0.6188166,0.93432283,4.180151,-2.4397957,-7.0032644
54,1778415514.4873078,0.9938995,-0.6188166,0.93432283,4.180151,-2.4397957,-7.0032644
55,1778415514.4977376,0.9938995,-0.6188166,0.93432283,4.180151,-2.4397957,-7.0032644
56,1778415514.5078413,1.2368405,-0.6916867,0.9104799,3.5897496,-2.701857,-6.6894326
57,1778415514.5179508,1.3592867,-0.5860708,0.8850516,3.39412,-2.862362,-6.6204047
58,1778415514.5280795,1.4575241,-0.52856743,0.91352886,3.1680999,-2.946814,-6.617045
59,1778415514.53832,1.5464927,-0.5158838,0.9573729,2.783102,-2.8831313,-6.5813093
60,1778415514.5484517,1.5499076,-0.52801865,0.96572715,2.3058636,-2.5922067,-6.4279823
61,1778415514.5585701,1.5192959,-0.5505809,0.90419906,1.8432859,-2.2182045,-6.197686
62,1778415514.5687983,1.4619756,-0.6012546,0.86773354,1.5464053,-1.8907807,-5.8760657
63,1778415514.5789144,1.3768486,-0.64503765,0.652843,1.3611605,-1.5543466,-5.5458927
64,1778415514.5890431,1.3592867,-0.7125416,0.49277264,1.3035865,-1.4996742,-5.2699347
65,1778415514.599381,1.3157475,-0.7802894,0.2248302,1.3536774,-1.4202617,-4.919145
66,1778415514.6095128,1.2752573,-0.8726729,0.07719963,1.3738359,-1.427592,-4.725959
67,1778415514.6196382,1.0531102,-0.91291916,-0.15860681,1.215011,-1.5919148,-4.498259
68,1778415514.629758,0.79742455,-1.1550674,-0.19854817,0.91232723,-1.5925257,-4.432896
69,1778415514.6398704,0.47527164,-1.457646,-0.26361296,0.47647488,-1.3368785,-4.01705
70,1778415514.6499796,-0.015549688,-1.4941115,-0.42642733,0.035277467,-1.1183416,-3.6121988
71,1778415514.6601946,-0.20092636,-1.9011475,-0.29574898,-0.6238461,-0.6430884,-3.0909781
72,1778415514.6702974,-0.6697952,-2.4953895,-0.50942,-1.758681,1.1291844,-2.2461514
73,1778415514.6804154,-0.6697952,-2.4953895,-0.50942,-1.758681,1.1291844,-2.2461514
74,1778415514.6905284,-1.5978981,-2.6055179,-1.103601,-1.7702875,2.0422752,-2.1125247
75,1778415514.7008832,-2.5454535,-3.4033694,-1.9562117,-0.20723604,0.6516405,-1.9651535
76,1778415514.7109957,-2.5454535,-3.4033694,-1.9562117,-0.20723604,0.6516405,-1.9651535
77,1778415514.721115,-2.9399276,-3.7880867,-2.1912866,0.84329945,-0.8929323,-1.547169
78,1778415514.7312417,-3.0632274,-4.036821,-2.084756,1.2760975,-1.7792977,-1.0535898
79,1778415514.7413564,-3.0895705,-4.270005,-0.9323105,0.82543164,-2.4510968,2.3122776
80,1778415514.7514982,-2.953709,-4.072189,-0.6810763,0.35827246,-1.8680259,3.9035816
81,1778415514.7616,-2.5716136,-3.6538105,-0.6650998,0.35827246,-1.8680259,3.9035816
82,1778415514.7717257,-2.081585,-3.2696419,-0.6926014,0.42073345,-0.9034697,7.407352
83,1778415514.781824,-1.0073758,-2.7711372,-0.81291324,0.8352055,-0.69043046,9.313557
84,1778415514.7920113,-1.0073758,-2.7711372,-0.81291324,0.8352055,-0.69043046,9.313557
85,1778415514.8021994,0.07677277,-2.335014,-0.9499944,0.85902923,-0.8688031,10.468092
86,1778415514.8123236,0.88864946,-2.0213985,-0.74479955,0.6047566,-0.99265605,10.959839
87,1778415514.8224251,1.568933,-1.765225,-0.59954715,0.120493166,-0.8669705,11.219304
88,1778415514.8325448,2.1591504,-1.6241192,-0.4795402,-0.17562376,-0.82909685,11.31414
89,1778415514.8426473,2.8137007,-1.4379498,-0.20391434,-0.7002043,-0.7104363,11.435856
90,1778415514.8527644,3.1823199,-1.4176437,0.085004956,-1.0433578,-0.40576723,11.387139
91,1778415514.8628664,3.4724588,-1.5381995,-0.11232363,-0.91247994,-0.5152648,10.958617
92,1778415514.8731098,3.462824,-1.3576401,-0.52198166,-0.24984388,-1.7637206,10.260093
93,1778415514.8832161,3.4651413,-1.4349618,-0.42667124,0.2938262,-3.1068606,9.605398
94,1778415514.8933787,3.4655073,-1.6877815,-0.081773065,0.817185,-4.096615,8.89878
95,1778415514.9035733,3.4208703,-2.0483513,0.1890964,1.079857,-4.2294784,8.685588
96,1778415514.9139495,3.3553789,-2.2961094,0.34550798,1.195616,-4.0033054,8.8438015
97,1778415514.9240677,3.3553789,-2.2961094,0.34550798,1.195616,-4.0033054,8.8438015
98,1778415514.934168,3.3666599,-2.4581313,0.50063896,1.2220359,-3.3399057,9.399995
99,1778415514.9442844,3.2867773,-2.4072137,0.5813754,1.0395399,-2.3967297,10.006431
100,1778415514.9543965,3.3197057,-1.9859085,0.20074342,0.39553526,-1.0374019,10.801624
101,1778415514.9646566,3.4213583,-1.5849096,-0.08512692,0.030543262,-1.2140946,10.319194
102,1778415514.974771,3.429712,-1.519113,-0.09482261,-0.34788775,-1.5848899,9.567524
103,1778415514.9849184,3.3358045,-1.6693046,0.078663126,-0.5626069,-2.037541,8.85327
104,1778415514.9950743,3.2129924,-1.7799209,0.3079448,-0.355829,-2.3087652,8.711244
105,1778415515.0052917,3.1212187,-1.6931474,0.5081394,0.23884831,-2.2999077,8.978192
106,1778415515.0154748,3.3586717,-1.580641,0.57320416,0.7507534,-2.134974,9.3599825
107,1778415515.0255933,3.6849709,-1.3117838,0.5966811,0.7507534,-2.134974,9.3599825
108,1778415515.0357175,3.6849709,-1.3117838,0.5966811,0.893085,-1.9895881,9.680534
109,1778415515.0458386,4.3681207,-0.38544932,0.7315061,-0.51251596,-1.6444492,9.266826
110,1778415515.055962,4.783206,-0.15915562,0.9742642,-0.97097033,-1.3778065,9.006291
111,1778415515.0661175,5.2029862,0.18263261,1.2216567,-1.1180362,-0.6209445,8.650463
112,1778415515.0763183,5.374704,0.9095652,1.3891054,-1.0386237,0.49770245,8.044332
113,1778415515.0864341,5.7025275,1.2651958,1.4048991,-0.98715824,1.6019942,7.3381715
114,1778415515.09663,5.7512503,1.5401508,1.2050703,-0.79504114,3.0876184,6.144235
115,1778415515.1067302,5.862903,1.6930866,0.44734317,-0.32360587,3.6396878,5.2899404
116,1778415515.1168697,5.895405,1.9895673,-0.22879384,0.42959097,3.0166054,4.672203
117,1778415515.1270723,5.842963,2.452704,-0.46240503,1.6056592,1.303281,4.031405
118,1778415515.1371784,6.154932,2.8320553,-0.5179571,2.6655104,0.0346666,3.3997705
119,1778415515.147299,6.6953907,3.0368235,-0.2614177,3.7039814,-0.59620446,2.440254
120,1778415515.1574602,6.8330812,3.193662,-0.27647954,3.7328448,-0.17928895,1.4298828
121,1778415515.167587,6.7180753,3.117255,-0.51106644,2.953228,0.5564982,-0.5348125
122,1778415515.1776962,6.4290943,2.6708877,-0.58753425,1.8095356,1.0769554,-2.765387
123,1778415515.1878161,5.880404,1.7722375,-0.48130858,1.1045971,1.2805263,-4.110054
124,1778415515.1979527,5.1793265,0.94127446,-0.2008044,0.61300325,1.4940237,-5.1289773
125,1778415515.208121,4.654174,0.42337835,-0.036160648,0.42836925,1.69622,-5.630803
126,1778415515.2182403,4.25159,0.03195308,0.03433127,0.42730024,1.6612481,-5.842621
127,1778415515.2283416,3.8922393,-0.26684484,0.1293978,0.51083606,1.4714217,-5.986785
128,1778415515.2384465,3.6309433,-0.40624323,0.26550332,0.70280045,1.2229522,-6.1738625
129,1778415515.2486815,3.3989177,-0.45740473,0.45392892,0.9294315,1.1951579,-6.3108487
130,1778415515.258801,3.1151206,-0.39941353,0.5830828,1.116509,1.5161675,-6.466314
131,1778415515.2689414,2.8807778,-0.39087647,0.6053402,1.2620476,2.0532708,-6.657973
132,1778415515.2790518,2.6124086,-0.48332086,0.5874123,1.3888022,2.5300512,-6.7638054
133,1778415515.2891777,2.3254404,-0.462466,0.4195977,1.6172657,2.9063442,-6.9466066
134,1778415515.2994115,2.0980492,-0.50704175,0.2110489,1.9833268,2.8041768,-7.275863
135,1778415515.3095407,1.9623096,-0.60558414,0.09311519,2.4656048,2.2466097,-7.608174
136,1778415515.3196754,1.8040687,-0.63772017,0.066040434,2.8890872,1.643533,-7.8543525
137,1778415515.3297868,1.6782686,-0.6829057,0.08232188,3.346778,0.8388707,-8.190481
138,1778415515.3399131,1.6310097,-0.7646788,0.11903133,3.5880697,0.22357668,-8.448266
139,1778415515.3500116,1.6330831,-0.90346736,0.18744996,3.700927,-0.44165558,-8.668178
140,1778415515.3601363,1.6023496,-0.99243593,0.30824968,3.572798,-0.91247994,-8.7091055
141,1778415515.370254,1.6589993,-1.1161627,0.37593657,3.2123876,-1.1614076,-8.577464
142,1778415515.3805575,1.7114413,-1.1068329,0.4306349,2.8069258,-1.3883439,-8.346099
143,1778415515.390657,1.8158376,-0.8962718,0.44600162,2.5738807,-1.8984165,-8.189107
144,1778415515.4009278,1.8158376,-0.8962718,0.44600162,2.5738807,-1.8984165,-8.189107
145,1778415515.411059,1.9638951,-0.8191332,0.5966811,2.3386977,-2.2011,-8.360912
146,1778415515.4213135,1.9638951,-0.8191332,0.5966811,2.3386977,-2.2011,-8.360912
147,1778415515.4314592,2.0973785,-0.8483422,0.67083186,1.9480493,-2.0506747,-8.45468
148,1778415515.4416702,2.1760416,-0.9218831,0.731811,1.6719382,-1.8368717,-8.408866
149,1778415515.451765,2.3527591,-0.8487081,0.5682039,0.82970774,-1.3014483,-8.154899
150,1778415515.46191,2.4048965,-0.8623674,0.5812534,0.82970774,-1.3014483,-8.154899
151,1778415515.472047,2.4284344,-0.9380426,0.5422268,0.43035457,-0.82527894,-8.087703
152,1778415515.4822843,2.4284344,-0.9380426,0.5422268,0.1873829,-0.56337047,-7.91605
153,1778415515.4924426,2.3978229,-0.959934,0.30068827,0.1873829,-0.56337047,-7.91605
154,1778415515.5026202,2.3978229,-0.959934,0.30068827,-0.027947085,-0.4343252,-7.6874337
155,1778415515.5130796,2.2754986,-0.79876614,0.1542773,0.040927973,-0.8567385,-7.584656
156,1778415515.5232017,2.2243981,-0.84498835,0.16403395,0.18402316,-0.88040954,-7.5703
157,1778415515.5334396,2.2243981,-0.84498835,0.16403395,0.18402316,-0.88040954,-7.5703
158,1778415515.5435789,2.037436,-0.8371221,0.12519024,0.34605515,-0.7993172,-7.5557923
159,1778415515.5536702,1.2855629,-0.9816426,-0.047197875,0.91507614,-0.25610524,-7.7466874
160,1778415515.5638902,1.2855629,-0.9816426,-0.047197875,0.91507614,-0.25610524,-7.7466874
161,1778415515.5740118,-0.16177773,-1.9423084,-0.86633104,1.4928019,-0.43569964,-8.707121
162,1778415515.5841148,-1.2626346,-2.8582766,-1.1057353,1.3608551,-1.2670872,-8.675202
163,1778415515.5942748,-2.345137,-3.8160763,-0.8147426,0.8370381,-2.0503693,-7.695986
164,1778415515.6044302,-3.1254263,-4.5442286,-0.34532502,-0.027794369,-1.4998269,-5.8218513
165,1778415515.61456,-3.729608,-5.368667,-0.43246427,-0.875828,-0.6649268,-4.0182714
166,1778415515.6247468,-4.211099,-5.614535,-0.4953338,-1.8794796,-0.16187929,-2.1636846
167,1778415515.634844,-4.329887,-5.432085,-0.45173368,-1.8794796,-0.16187929,-2.1636846
168,1778415515.6450462,-4.329887,-5.432085,-0.45173368,-2.4529295,-0.0036651916,0.20754147
169,1778415515.6551766,-3.8399193,-4.5058117,-0.43972078,-0.39019018,-0.34773505,3.9915462
170,1778415515.6653326,-3.2097604,-3.9651704,-0.39081547,0.8190176,-0.7086037,5.3921075
171,1778415515.6754622,-2.3992255,-3.5099607,-0.30562758,1.3072516,-0.6771441,6.4052277
172,1778415515.6856844,-1.539785,-3.096888,-0.357094,1.3203852,-0.39095375,7.5568614
173,1778415515.6957977,-0.84706163,-2.7740035,-0.45307523,1.0262536,-0.18051068,8.345641
174,1778415515.705943,-0.045124583,-2.4373374,-0.47075918,0.52687126,-0.015882496,9.147554
175,1778415515.716174,0.5146642,-2.224215,-0.4220978,0.14095716,0.08170322,9.799958
176,1778415515.7262757,0.9937775,-2.0266426,-0.40368208,0.04230242,0.08109236,10.117914
177,1778415515.7364998,0.9937775,-2.0266426,-0.40368208,0.04230242,0.08109236,10.117914
178,1778415515.7466078,2.1907375,-1.4941115,-0.28050417,0.17012598,-0.33185256,10.659293
179,1778415515.7568085,2.1907375,-1.4941115,-0.28050417,0.17012598,-0.33185256,10.659293
180,1778415515.7669241,2.9909062,-1.2012286,0.02268425,-0.15042557,-0.4821254,10.476339
181,1778415515.7770696,3.1885397,-1.1046985,0.12397064,-0.5917757,-0.38331795,10.31446
182,1778415515.7871985,3.3467808,-1.0314626,0.2338551,-1.2799155,-0.25305092,9.958173
183,1778415515.7973275,3.3878198,-1.0249379,0.3392271,-1.8353447,-0.15363261,9.675036
184,1778415515.807476,3.3524518,-0.99109435,0.4534411,-2.366492,-0.10980303,9.417404
185,1778415515.817586,3.1800635,-0.87675846,0.52490866,-2.595261,-0.15317446,9.138239
186,1778415515.8277497,3.0634103,-0.8244384,0.5697893,-2.5685356,-0.20647246,8.92749
187,1778415515.837857,2.784065,-0.73004264,0.60381573,-2.2484422,-0.24816401,8.449488
188,1778415515.848113,2.563991,-0.69004023,0.5436293,-1.933083,-0.2790127,7.971486
189,1778415515.8582284,2.3150742,-0.6579652,0.3842907,-1.6514742,-0.4653266,7.378641
190,1778415515.8683488,2.136832,-0.71266353,0.25153908,-1.299463,-0.8883508,6.787171
191,1778415515.878465,1.9479796,-0.84090275,0.17031482,-0.9728029,-1.2906055,6.39805
192,1778415515.8887234,1.8334607,-0.9363961,0.12561709,-0.5795584,-1.7753271,6.267172
193,1778415515.898852,1.6990626,-1.0473173,0.19391376,-0.26328292,-2.0905335,6.2954245
194,1778415515.9089816,1.6604627,-1.0719528,0.2754429,-0.13713925,-2.132225,6.44585
195,1778415515.9191132,1.6527183,-1.036219,0.35258156,-0.19028452,-1.9184223,6.7024136
196,1778415515.9293077,1.6929036,-0.95487285,0.36020395,-0.4372268,-1.5430456,6.9059844
197,1778415515.9395397,1.7366257,-0.8551108,0.2947733,-0.63453627,-1.3309226,6.9463015
198,1778415515.9497797,1.8922446,-0.71717596,0.09146875,-1.0051788,-1.2565498,6.835124
199,1778415515.9599156,1.9637122,-0.6121089,0.021525647,-1.1580478,-1.6212363,6.566954
200,1778415515.9700546,1.996702,-0.5832657,0.071772486,-1.1438452,-1.973553,6.370408
201,1778415515.9802117,2.0110319,-0.5114323,0.16177773,-0.9456194,-2.3232732,6.2517476
202,1778415515.9903517,2.0836582,-0.37672928,0.29495624,-0.57879484,-2.5520422,6.199977
203,1778415516.0004895,2.221471,-0.21903718,0.48027194,-0.24678956,-2.463467,6.104987
204,1778415516.0106053,2.380078,-0.09713981,0.5538738,-0.14385876,-2.081676,5.984647
205,1778415516.0207093,2.7089996,0.027257688,0.49496788,-0.21212296,-1.438435,5.8198657
206,1778415516.030813,3.138049,0.09183463,0.30812773,-0.5581781,-0.8915578,5.5892644
207,1778415516.0409188,3.570635,0.13659334,0.1642169,-1.0598512,-0.61636305,5.236184
208,1778415516.0510285,3.8822997,0.20751211,0.16940013,-1.3750577,-0.56046885,4.9750395
209,1778415516.0611312,4.326655,0.41508517,0.32947046,-1.1722504,-0.4662429,5.074763
210,1778415516.0713053,5.532091,1.2089729,0.7526049,-0.6899723,-0.065973446,5.1439433
211,1778415516.0815587,6.106515,1.6650362,0.8902349,-0.24862215,0.6985244,4.794376
212,1778415516.0916584,6.670877,2.280194,0.9101751,0.08582657,1.4587462,4.075082
213,1778415516.1018023,7.0433984,2.5656984,0.7256521,0.581391,2.1201606,2.5318837
214,1778415516.1119037,7.1077924,2.6500936,0.532775,1.2260065,2.2547035,0.5543602
215,1778415516.122053,6.965407,2.5545394,0.47014937,1.2260065,2.2547035,0.5543602
216,1778415516.132146,6.965407,2.5545394,0.47014937,1.7289014,2.0114264,-1.0600039
217,1778415516.1422582,6.532515,2.2017138,0.58771724,2.1216877,1.760361,-2.5202773
218,1778415516.152366,5.829426,1.574848,0.78724104,2.5563183,1.7272215,-4.287816
219,1778415516.162463,5.266649,1.0066441,0.8637699,2.818685,1.8377881,-5.2984924
220,1778415516.1725602,4.3856826,0.32062846,0.91255325,2.919936,2.1456642,-6.1482058
221,1778415516.1826568,3.9569383,0.18690115,0.90182096,2.6900978,2.3941336,-6.346279
222,1778415516.1927454,3.658933,0.12769037,0.8931009,2.422997,2.6126707,-6.493803
223,1778415516.202858,3.26641,0.1235438,0.86541635,2.1470387,2.9240592,-6.7486863
224,1778415516.2129438,2.9700515,0.08415125,0.79425365,2.1039727,3.1193833,-7.104363
225,1778415516.2230313,2.669363,-0.03091644,0.6661974,2.1039727,3.1193833,-7.104363
226,1778415516.2331114,2.464778,-0.14793546,0.5538738,2.9066496,2.9280298,-7.7020946
227,1778415516.243193,2.464778,-0.14793546,0.5538738,2.9066496,2.9280298,-7.7020946
228,1778415516.2532742,2.3373926,-0.32355547,0.41484126,3.6117408,2.5283713,-8.040209
229,1778415516.2633495,2.1563454,-0.66205084,0.23416002,4.716796,1.4559973,-8.882439
230,1778415516.273435,2.1200626,-0.8161452,0.16854642,5.026352,0.9246973,-9.268047
231,1778415516.2835119,2.1044521,-1.027377,0.076528855,5.2849007,-0.020005837,-9.677022
232,1778415516.2935872,2.0940247,-1.1039059,0.066772185,5.2893295,-0.5290093,-9.787894
233,1778415516.3036816,2.0878658,-1.2378161,0.14543532,4.989089,-1.476614,-9.772775
234,1778415516.3138094,2.0682914,-1.2428164,0.31337196,4.4846673,-1.9730947,-9.578825
235,1778415516.3239396,2.063596,-1.206046,0.42892745,4.0405684,-2.0900755,-9.397093
236,1778415516.3340313,2.0835972,-1.1800689,0.51039565,3.5514178,-2.0016527,-9.242697
237,1778415516.3441703,2.0835972,-1.1800689,0.51039565,3.5514178,-2.0016527,-9.242697
238,1778415516.3542986,2.1018908,-1.1687877,0.54820275,2.9046643,-1.7159204,-9.063408
239,1778415516.3644302,2.1388443,-1.0803679,0.4094141,1.8538233,-1.410946,-8.662069
240,1778415516.3745666,2.1887252,-0.9670686,0.30495682,1.4217888,-1.5231925,-8.613811
241,1778415516.3847673,2.2470822,-0.9067602,0.26007617,1.1881329,-1.7655532,-8.671843
242,1778415516.3950932,2.295317,-0.91749257,0.26239336,1.0404562,-2.0674734,-8.711091
243,1778415516.4052153,2.402884,-0.95206773,0.33806852,0.86574876,-2.46927,-8.593653
244,1778415516.4153445,2.4978287,-0.9586535,0.49393123,0.66614854,-2.6019804,-8.338616
245,1778415516.4254827,2.5422826,-0.93072504,0.59430295,0.48991394,-2.4550674,-8.094422
246,1778415516.4356258,2.5718572,-0.88968605,0.63772017,0.311694,-2.1766655,-7.876802
247,1778415516.445729,2.529111,-0.8800513,0.57552135,0.093462385,-1.7314975,-7.6439095
248,1778415516.4558315,2.4206898,-0.8933448,0.44472107,-0.06612616,-1.4989105,-7.3655076
249,1778415516.4659371,2.2090313,-0.8708435,0.41715845,-0.03940081,-1.3941472,-7.0561047
250,1778415516.4761956,1.929076,-0.8854785,0.30154198,0.23105977,-1.3170254,-6.738149
251,1778415516.486344,1.6560721,-0.8470006,0.18214478,0.63148195,-1.412015,-6.552599
252,1778415516.4966495,1.2837335,-0.9741422,0.059820563,1.2313516,-1.6975945,-6.445239
253,1778415516.5069091,0.7912047,-1.3189794,-0.022379354,1.6878207,-1.9689714,-6.497926
254,1778415516.5171108,0.29361472,-1.762176,-0.019330395,1.8434386,-2.129171,-6.7248626
255,1778415516.5273352,-0.38270527,-2.4317272,0.20104831,1.5528195,-1.9478966,-6.7841167
256,1778415516.5374732,-1.1724465,-3.1770146,0.4480749,0.8032878,-1.2585351,-6.207918
257,1778415516.547738,-2.0769506,-4.4122696,0.77455735,-0.20066923,0.02565634,-5.3296466
258,1778415516.557848,-3.26641,-4.9639482,0.063418336,-1.3677273,1.239751,-4.225966
259,1778415516.5681102,-3.9518158,-5.675087,-0.20653644,-1.9078848,0.98868537,-2.4124596
260,1778415516.5783167,-4.379585,-5.7533236,-0.23848954,-1.5068518,0.2527455,-0.32284227
261,1778415516.5886326,-4.183415,-5.728993,0.06512575,-0.73639804,-0.17913623,1.5273159
262,1778415516.5988092,-3.826443,-5.200547,0.25275865,0.09086621,-0.06352998,3.5234706
263,1778415516.609055,-3.3865392,-4.783877,0.13720313,0.5047274,0.16264287,4.869207
264,1778415516.6191964,-2.5885658,-4.1142645,-0.10817704,0.85139346,0.19272798,6.767165
265,1778415516.6293812,-1.8564497,-3.6922274,-0.091102876,0.9949468,0.2742785,7.9832454
266,1778415516.6395035,-1.0293893,-3.2157364,-0.11262852,1.0306823,0.5627596,9.079596
267,1778415516.6498177,0.046832,-2.7675395,-0.27794304,0.86819226,0.892016,10.110736
268,1778415516.6598985,0.9802401,-2.3930664,-0.32940948,0.56596667,1.0096076,10.752755
269,1778415516.6700568,1.6985137,-2.0767677,-0.31209138,0.4531093,1.0067059,11.1246195
270,1778415516.680243,2.1964695,-1.8618768,-0.336605,0.74021596,0.8352055,11.421195
271,1778415516.690425,2.7692468,-1.6911962,-0.3811808,1.0986412,0.61498857,11.616672
272,1778415516.7005422,3.1517081,-1.4766105,-0.40923122,1.4376713,0.3996586,11.669359
273,1778415516.7106717,3.6931424,-1.2658056,-0.33081198,1.6417004,0.20066923,11.451586
274,1778415516.7207942,3.8977273,-1.1814104,-0.2089756,1.4216361,0.2790127,11.1125555
275,1778415516.7309847,4.0234666,-1.1711049,-0.12537317,0.81000733,0.47510046,10.61241
276,1778415516.7411296,4.0195026,-1.1612263,-0.045612417,0.21197024,0.5687156,10.302854
277,1778415516.7512646,3.8329065,-1.115431,0.12890996,-0.48533243,0.6786713,10.021244
278,1778415516.7613716,3.5995393,-1.1236022,0.32197002,-1.0823005,0.91706145,9.864862
279,1778415516.7714713,3.1956742,-1.1224436,0.27678445,-1.8973475,1.3965907,9.605856
280,1778415516.7815602,3.0841434,-1.2039727,0.14104481,-2.1679606,1.2267702,9.449169
281,1778415516.7917645,3.0841434,-1.2039727,0.14104481,-2.1679606,1.2267702,9.449169
282,1778415516.8018546,3.0403602,-1.1188458,0.032684833,-2.360536,0.67164636,9.323026
283,1778415516.8120039,3.0403602,-1.1188458,0.032684833,-2.6067147,0.012064588,8.988118
284,1778415516.8221002,2.7885773,-1.1377493,0.254588,-2.957046,-0.88361657,8.191398
285,1778415516.832241,2.7885773,-1.1377493,0.254588,-2.957046,-0.88361657,8.191398
286,1778415516.8423557,2.6807053,-1.1662875,0.33349505,-2.8968756,-1.0493138,7.9971423
287,1778415516.8525095,2.479352,-1.188362,0.4180122,-2.4937046,-1.150412,7.865806
288,1778415516.8626268,2.4311783,-1.1399446,0.2335502,-1.5691601,-1.4679092,7.9453716
289,1778415516.8727536,2.4423985,-1.0056685,0.09213952,-1.395827,-1.7763962,7.8661118
290,1778415516.8828526,2.4583142,-0.7240667,0.04463675,-1.3588698,-2.417194,7.440186
291,1778415516.8929968,2.4728882,-0.6308905,0.091224834,-1.3672692,-2.7127,7.142542
292,1778415516.9031758,2.5271597,-0.43374482,0.22214709,-1.3261884,-3.114649,6.75617
293,1778415516.913877,2.625214,-0.24836816,0.33739772,-1.21608,-3.200934,6.661791
294,1778415516.9241047,2.8453488,0.12872702,0.6052792,-1.1032226,-2.9518535,6.6329274
295,1778415516.934217,2.9392567,0.39843786,0.7399822,-1.1815661,-2.5499043,6.570772
296,1778415516.9443197,2.9392567,0.39843786,0.7399822,-1.1815661,-2.5499043,6.570772
297,1778415516.9546995,3.155306,0.65845305,0.9346277,-1.6586518,-1.5728253,6.2011986
298,1778415516.9648306,3.5635617,0.79833925,1.1044546,-2.638938,1.2712106,5.0185633
299,1778415516.9749565,3.7294247,1.0577446,0.9480431,-2.1696405,2.0647244,4.772843
300,1778415516.9851487,3.925351,1.3218454,0.7565076,-1.3341297,2.2734878,4.6190577
301,1778415516.9953158,4.384768,1.5176495,0.36977768,0.051923547,1.9752327,4.1410556
302,1778415517.005462,4.862113,1.6164968,0.005000292,1.1872166,1.3271047,3.525456
303,1778415517.015774,5.245855,2.005056,-0.2906267,2.3437371,0.09025534,2.4793494
304,1778415517.0258837,5.5872774,2.1698828,-0.13720313,2.9232957,-1.2508993,1.1636983
305,1778415517.0361536,5.755275,2.188847,0.18403512,2.977968,-1.6132951,0.2938262
306,1778415517.0462618,6.0538898,1.9910308,0.5864367,2.575408,-0.9457721,-1.2881621
307,1778415517.0564456,6.1560297,1.5666767,0.71260256,1.9214766,0.34788775,-2.547308
308,1778415517.066599,6.1070027,1.2131195,0.61424315,1.1863003,1.509448,-3.7226129
309,1778415517.076773,5.9612017,0.67339295,0.46624672,0.768163,2.0650299,-4.6120324
310,1778415517.0868957,5.6689286,0.13543473,0.43850118,0.6603453,2.3052528,-5.5918603
311,1778415517.097065,5.3580565,-0.18787682,0.48685768,0.92271197,2.2444715,-6.249151
312,1778415517.1072874,4.849429,-0.45283127,0.6328418,1.3709344,2.1273382,-6.6086454
313,1778415517.1175725,4.6182575,-0.5022244,0.7123586,1.6493362,2.1716259,-6.694625
314,1778415517.1276865,4.189574,-0.45795357,0.7365674,2.0244074,2.4868324,-6.746854
315,1778415517.137802,3.9711463,-0.3910594,0.7043704,2.127949,2.7418687,-6.849174
316,1778415517.147921,3.6082594,-0.30465192,0.6249755,2.2174408,2.9596422,-7.0002103
317,1778415517.1580644,3.1656115,-0.22952558,0.49338245,2.446057,3.1345022,-7.2983127
318,1778415517.1683,2.9108405,-0.23434295,0.4233174,2.7447703,3.0821207,-7.5913754
319,1778415517.1786668,2.6760707,-0.28068712,0.29166338,3.0250046,2.908024,-7.8612247
320,1778415517.1888597,2.4711196,-0.34020278,0.18921836,3.4122932,2.4860687,-8.301201
321,1778415517.198989,2.3290384,-0.4314276,0.08567573,3.899611,1.8571831,-8.820894
322,1778415517.2091718,2.2201905,-0.56795996,0.020793896,4.44939,1.0387764,-9.410073
323,1778415517.2192984,2.1475644,-0.7161393,-0.0043295207,4.927392,0.18570304,-10.007042
324,1778415517.2295234,2.1352465,-0.9652392,-0.02128173,5.1622696,-0.51053065,-10.364093
325,1778415517.239772,2.1203678,-1.1045767,-0.015488708,5.1653237,-1.1690434,-10.533913
326,1778415517.2498791,2.116709,-1.2717205,0.0030489585,4.910898,-1.7731891,-10.505355
327,1778415517.2600906,2.1054277,-1.3164183,0.09476163,4.269337,-2.3617578,-10.273379
328,1778415517.2702413,2.1097574,-1.2847091,0.3363001,3.2876768,-2.581822,-9.929768
329,1778415517.280414,2.1097574,-1.2847091,0.3363001,2.6010642,-2.462245,-9.635178
330,1778415517.2906017,2.0694501,-1.2641591,0.36410663,1.8005253,-2.1054997,-9.2216215
331,1778415517.3007443,2.0556688,-1.1979967,0.30538365,1.1937834,-1.7945694,-8.822421
332,1778415517.3108563,2.0532296,-1.1312245,0.28550446,0.73884153,-1.6038266,-8.446739
333,1778415517.3209789,2.0470707,-1.0615253,0.29239509,0.42317688,-1.4596626,-8.188954
334,1778415517.3310769,2.0370092,-0.95139694,0.2742843,0.17088956,-1.3388638,-8.014857
335,1778415517.3412058,2.01963,-0.8359024,0.26099083,0.0106901415,-1.2596041,-7.951938
336,1778415517.351329,2.0293868,-0.8052299,0.2564174,-0.15027285,-1.1971432,-7.9539237
337,1778415517.361472,2.0485952,-0.8448054,0.21232945,-0.2857322,-1.1771374,-7.9158974
338,1778415517.3716037,2.0745723,-0.88974696,0.17549805,-0.3576616,-1.2864822,-7.7697477
339,1778415517.3817177,2.0323749,-0.92779803,0.13939838,-0.21563543,-1.7333301,-7.250512
340,1778415517.3918564,2.0323749,-0.92779803,0.13939838,-0.21563543,-1.7333301,-7.250512
341,1778415517.4020169,1.9474307,-0.86669695,0.17537609,0.36468655,-2.2296581,-6.6770625
342,1778415517.412115,1.6283267,-0.8451103,0.3670946,0.7678576,-2.2389739,-6.2664084
343,1778415517.4223504,1.6283267,-0.8451103,0.3670946,0.7678576,-2.2389739,-6.2664084
344,1778415517.43254,1.4505115,-0.8249872,0.38032708,1.0748174,-2.1801782,-5.9292107
345,1778415517.4428434,1.2192174,-0.845842,0.34434935,1.311375,-2.0486894,-5.636606
346,1778415517.4533002,0.56234986,-1.126834,0.20982932,1.4569136,-1.934763,-5.3404894
347,1778415517.463464,0.56234986,-1.126834,0.20982932,1.34314,-1.8159497,-5.145929
348,1778415517.4735613,-0.03457519,-2.2783647,0.5984496,0.2667954,-0.9983065,-4.805982
349,1778415517.4836597,-0.6873572,-2.614238,0.7940707,-0.88789266,0.34208453,-4.5967607
350,1778415517.4937851,-0.6873572,-2.614238,0.7940707,-1.8429805,1.4364496,-4.3078218
351,1778415517.504054,-2.2210443,-3.7574143,0.27696738,-1.8429805,1.4364496,-4.3078218
352,1778415517.5142884,-2.2210443,-3.7574143,0.27696738,-2.1071796,1.7311921,-3.4886515
353,1778415517.5244157,-3.0748744,-4.227015,0.13122717,-1.2822062,0.79152864,-1.2198979
354,1778415517.5345514,-3.0748744,-4.227015,0.13122717,-1.2822062,0.79152864,-1.2198979
355,1778415517.5450568,-3.2328715,-4.1779876,0.45795357,-0.55481833,0.7761043,0.68386364
356,1778415517.5551522,-3.2328715,-4.1779876,0.45795357,-0.55481833,0.7761043,0.68386364
357,1778415517.5652685,-3.0366406,-3.7444258,0.16318026,-0.14508049,1.3426818,3.0079005
358,1778415517.575474,-2.6659484,-3.4345298,0.006707709,0.04260785,1.3782647,4.2919393
359,1778415517.5855877,-2.1593335,-3.0628006,-0.104945146,0.40500367,1.4321736,5.5669675
360,1778415517.5957186,-1.6922939,-2.8083956,-0.18940128,0.73838335,1.4897476,6.4850984
361,1778415517.6058393,-1.1011618,-2.5658205,-0.29672462,0.9265299,1.6494889,7.6078687
362,1778415517.6159759,-0.53009194,-2.3754435,-0.40459678,0.8014552,1.756543,8.270046
363,1778415517.6260958,-0.05927175,-2.2739742,-0.4429527,0.54260105,1.7847955,9.1683235
364,1778415517.636269,-0.05927175,-2.2739742,-0.4429527,0.54260105,1.7847955,9.1683235
365,1778415517.6464772,1.2142172,-2.0797555,-0.5422877,-0.08323039,1.8513799,10.734735
366,1778415517.6565921,1.9505405,-1.9311492,-0.5371655,-0.6553057,1.8015944,11.545506
367,1778415517.6667538,2.673205,-1.7493094,-0.4549046,-1.3637567,1.7394388,12.174087
368,1778415517.6768763,3.2876308,-1.4916724,-0.32300666,-2.1340578,1.643533,12.475395
369,1778415517.6870804,3.6710677,-1.2128756,-0.18799877,-2.8299859,1.4373659,12.272741
370,1778415517.697215,3.77894,-1.0601839,-0.048722353,-3.3258557,1.1336132,11.633776
371,1778415517.7073436,3.726681,-0.9726177,0.07591906,-3.537826,0.81245077,10.992978
372,1778415517.7174869,3.4914842,-0.95023835,0.20025559,-3.5605807,0.34681875,10.208322
373,1778415517.7276804,3.3087904,-1.0338409,0.25105122,-3.4683402,0.008399397,9.685574
374,1778415517.7377908,3.1985402,-1.0927467,0.25135612,-3.3557882,-0.3817908,9.280112
375,1778415517.7479208,2.9479158,-1.2114122,0.28507763,-3.1697798,-0.95478237,8.794168
376,1778415517.7580705,2.8255916,-1.2823919,0.31562817,-3.038291,-1.257008,8.536689
377,1778415517.7681715,2.7944922,-1.4086797,0.29172435,-2.8831313,-1.6016886,8.367022
378,1778415517.778345,2.728208,-1.4149606,0.29440743,-2.7782152,-1.9640845,8.26745
379,1778415517.7885313,2.6411297,-1.3783121,0.3052617,-2.6667323,-2.21683,8.158411
380,1778415517.7986517,2.5492342,-1.3440418,0.3403857,-2.4309382,-2.5076017,8.017301
381,1778415517.8088093,2.444228,-1.2776355,0.35691106,-2.080607,-2.7145324,7.8630576
382,1778415517.8191214,2.385444,-1.2332426,0.37685126,-1.6649132,-2.9135218,7.7019415
383,1778415517.8292186,2.4098969,-1.220559,0.38929102,-1.3416128,-3.0358477,7.5958037
384,1778415517.8393433,2.447094,-1.1717757,0.40057215,-1.1233811,-3.1047225,7.504174
385,1778415517.8494785,2.5375872,-1.0636597,0.41758534,-0.86101454,-3.1532865,7.201643
386,1778415517.8595815,2.5649667,-0.9605439,0.5652159,-0.95325524,-3.0575333,6.9004865
387,1778415517.8696887,2.5299647,-0.9007233,0.7342501,-1.1800389,-2.6861272,6.685462
388,1778415517.879814,2.5013654,-0.8054738,0.81504756,-1.3264939,-2.1933117,6.5457263
389,1778415517.8899245,2.4940479,-0.67138064,0.8526717,-1.347416,-1.7168368,6.481891
390,1778415517.9002402,2.567162,-0.44862375,0.86273324,-1.3045027,-1.3599387,6.4403524
391,1778415517.9105754,2.6977184,-0.17860797,0.9209074,-1.2663237,-0.889878,6.3476534
392,1778415517.9207132,2.8407755,0.09183463,0.9465186,-1.3075571,-0.4072944,6.177375
393,1778415517.930822,3.1227431,0.35325232,0.88889337,-1.5114334,0.22937989,5.8035254
394,1778415517.9410896,3.4353833,0.61174303,0.83071923,-1.9091066,0.71975195,5.284595
395,1778415517.951242,3.6380172,0.7295548,0.85017157,-2.2229385,0.96745783,4.9356384
396,1778415517.9614768,4.0445046,0.80309564,0.9936555,-2.8166997,1.3443617,4.414876
397,1778415517.9718482,4.419465,1.0133518,1.2123269,-2.9541442,1.3680327,4.37349
398,1778415517.9819694,5.8934536,1.583568,1.7987634,-1.7119498,1.3866642,4.482071
399,1778415517.9920928,6.5589194,1.9027939,1.797239,-0.6556111,1.5543466,3.8637226
400,1778415518.0021973,7.0228486,2.2128122,1.7440042,0.09758572,1.6523905,2.6988027
401,1778415518.0123925,7.0228486,2.2128122,1.7440042,0.8668178,1.7959439,0.55863625
402,1778415518.0228434,7.325428,2.3455026,1.6759514,0.8668178,1.7959439,0.55863625
403,1778415518.0332243,7.2329226,2.1275632,1.6046059,1.3988814,1.8695531,-1.3541355
404,1778415518.0434608,6.4422054,1.0795141,1.7170514,2.3990204,2.20446,-4.658764
405,1778415518.053689,6.4422054,1.0795141,1.7170514,2.3990204,2.20446,-4.658764
406,1778415518.0638118,5.749055,0.21482961,1.6888181,2.9281826,2.5595255,-5.5652876
407,1778415518.0739093,4.6849685,-0.5388729,1.4303274,3.7420077,3.2543845,-6.222121
408,1778415518.0840194,4.6849685,-0.5388729,1.4303274,3.7420077,3.2543845,-6.222121
409,1778415518.0941584,3.820772,-0.6041816,1.1002471,3.9558105,3.7427714,-6.489069
410,1778415518.1043694,3.4201994,-0.60046184,0.84047586,4.072486,3.771024,-6.7300553
411,1778415518.114473,3.0865216,-0.5848512,0.6922965,4.2604795,3.5963163,-6.986771
412,1778415518.1246006,2.702048,-0.59704703,0.53722644,4.6583056,3.261104,-7.4010906
413,1778415518.1347046,2.4022744,-0.690711,0.39538893,5.1529536,2.7444649,-7.86321
414,1778415518.1448276,2.2026284,-0.7711426,0.2842849,5.6030087,2.0735822,-8.323803
415,1778415518.1549377,2.073109,-0.834195,0.14500846,5.8526998,1.5282321,-8.626945
416,1778415518.165176,2.073109,-0.834195,0.14500846,5.8526998,1.5282321,-8.626945
417,1778415518.1753187,1.8330337,-0.90194285,0.04616123,6.8704014,-1.1684325,-9.857227
418,1778415518.1855247,1.847425,-0.99298483,0.12104365,7.0000577,-2.2487476,-10.323775
419,1778415518.1957676,1.8690114,-1.0635986,0.17683959,6.7787714,-2.947272,-10.567358
420,1778415518.205878,1.8890736,-1.1429325,0.21763465,6.290843,-3.4752123,-10.651352
421,1778415518.215999,1.922856,-1.1779956,0.26538134,5.4487653,-3.9555051,-10.522459
422,1778415518.226114,1.9580411,-1.1773248,0.363009,4.458247,-4.171904,-10.209391
423,1778415518.236255,1.9411498,-1.1176872,0.46344167,3.3956473,-4.012774,-9.8192005
424,1778415518.24636,1.9507235,-1.091771,0.5118591,2.349235,-3.566842,-9.414044
425,1778415518.2564926,1.9424304,-1.0878685,0.5046026,1.738828,-3.2328515,-9.1467905
426,1778415518.266675,1.9424304,-1.0878685,0.5046026,1.738828,-3.2328515,-9.1467905
427,1778415518.2768843,1.8957814,-0.90352833,0.28666306,0.73899424,-2.6858218,-8.644049
428,1778415518.2870052,1.9092577,-0.8846248,0.23983108,0.058337633,-2.4769058,-8.176889
429,1778415518.297394,1.990482,-0.85352546,0.20531686,-0.056199603,-2.4943156,-8.095034
430,1778415518.3075519,2.0896342,-0.90194285,0.16482669,-0.21762075,-2.5608997,-7.938194
431,1778415518.3176668,2.189945,-0.980484,0.18391317,-0.38148534,-2.6166413,-7.6747584
432,1778415518.3279245,2.2373257,-0.9096872,0.26062497,-0.5852089,-2.552653,-7.2247033
433,1778415518.3380659,2.1831763,-0.7826676,0.38264427,-0.8332202,-2.2146919,-6.858337
434,1778415518.348196,2.1148796,-0.72351784,0.44094035,-1.1012373,-1.6462818,-6.5845165
435,1778415518.3583143,1.9538945,-0.68857676,0.31050593,-1.1911873,-1.1681271,-6.391941
436,1778415518.3684497,1.8402293,-0.71595645,0.21769562,-1.0989466,-1.0720685,-6.327953
437,1778415518.3785775,1.5678353,-0.75547093,0.06671121,-0.45188758,-1.3602442,-6.223495
438,1778415518.388841,1.284953,-0.83639026,-0.03439225,0.23319781,-1.8428277,-6.0988784
439,1778415518.3989673,1.0298162,-0.9867649,-0.012622688,1.0268645,-2.4596488,-5.83132
440,1778415518.4091306,0.6444889,-1.282331,0.22653762,1.4694363,-2.6815457,-5.4738107
441,1778415518.419404,0.30227375,-1.6982698,0.47100312,1.2554808,-2.238821,-5.0465107
442,1778415518.4296186,-0.28648013,-2.0532296,0.70650464,0.5656612,-1.5039502,-4.709313
443,1778415518.439971,-0.99115545,-2.4570336,1.0564641,-0.32467487,-0.15775596,-4.146706
444,1778415518.4501514,-1.3185526,-2.8806558,1.1614093,-0.81336707,1.1717923,-3.4607043
445,1778415518.4604192,-2.1818955,-3.3096445,0.7673619,-1.1340714,2.2748623,-2.937193
446,1778415518.4707713,-2.801688,-3.7572923,0.17946169,-0.23350324,1.2104294,-0.8003862
447,1778415518.4812505,-3.1159744,-4.080543,0.23074517,-0.23350324,1.2104294,-0.8003862
448,1778415518.4913797,-3.2775695,-3.8163202,0.69766265,1.4369078,0.88239485,1.3468051
449,1778415518.5018528,-3.2512262,-3.5640492,0.60119367,1.5528195,1.3127494,2.2420282
450,1778415518.5119333,-3.2512262,-3.5640492,0.60119367,1.5528195,1.3127494,2.2420282
451,1778415518.5220265,-2.8897417,-3.2366524,0.17665665,1.6317738,1.8810068,4.238794
452,1778415518.5321567,-2.8897417,-3.2366524,0.17665665,1.6317738,1.8810068,4.238794
453,1778415518.542255,-2.529111,-3.0042605,-0.0031709166,1.6094772,1.9625573,6.5677176
454,1778415518.5525167,-1.9340763,-2.6914375,-0.053966567,1.6094772,1.9625573,6.5677176
455,1778415518.5626538,-1.3940448,-2.4744737,-0.047075916,1.329701,2.1320724,7.48707
456,1778415518.5727766,-0.5849122,-2.2240932,-0.05408852,0.8539896,2.3871086,8.542034
457,1778415518.5828996,1.0986006,-1.6925378,0.010366458,-0.111177474,3.0115657,10.162965
458,1778415518.5930228,1.9040745,-1.5499076,0.0016464376,-0.61483586,3.316082,10.693349
459,1778415518.6031575,2.4508746,-1.3772755,0.015061854,-1.0024298,3.4509306,11.041237
460,1778415518.6133008,2.9202313,-1.0061563,0.04170975,-1.3432927,3.4684927,11.1461525
461,1778415518.6234033,3.1797585,-0.64961106,0.030306645,-1.5948164,3.392593,10.787575
462,1778415518.6335273,3.2123215,-0.35288644,-0.013903251,-1.8701639,3.1308372,10.085233
463,1778415518.6436634,3.09079,-0.2403189,-0.07976075,-2.110692,2.6723828,9.346697
464,1778415518.653789,2.921573,-0.32154313,-0.06841862,-2.4010057,2.0683897,8.581588
465,1778415518.664038,2.921573,-0.32154313,-0.06841862,-2.4010057,2.0683897,8.581588
466,1778415518.6742847,2.7217443,-0.6102185,0.051771317,-2.818074,1.2611313,7.850535
467,1778415518.6843917,2.5036216,-1.2512316,0.4344156,-3.5269833,0.14446963,7.616115
468,1778415518.6945007,2.5041707,-1.3185526,0.64491564,-3.6822958,-0.20677789,7.927962
469,1778415518.7046251,2.5342941,-1.3070885,0.8048031,-3.7786596,-0.27137688,8.16009
470,1778415518.7147422,2.6136892,-1.2639762,0.9477383,-3.9057198,-0.14401148,8.237517
471,1778415518.724868,2.5694182,-1.1536648,1.0104858,-4.137696,0.20937407,8.121606
472,1778415518.7350066,2.4370325,-1.056769,0.91602904,-4.3321037,0.47571132,7.822893
473,1778415518.7452238,2.2701325,-1.0432316,0.7901071,-4.351193,0.49861875,7.4707294
474,1778415518.7554133,2.166285,-1.0408534,0.69558936,-4.245819,0.3894266,7.276169
475,1778415518.765516,2.0472536,-1.0767092,0.50899315,-3.8095083,-0.035124753,6.995934
476,1778415518.7756405,1.9645048,-1.0248158,0.33093393,-3.0524936,-0.851088,6.7607512
477,1778415518.785749,1.9885306,-0.97774,0.24544115,-2.0868683,-1.8658879,6.5049515
478,1778415518.795876,2.096159,-0.9557874,0.3105669,-1.1731668,-2.9118419,6.2923703
479,1778415518.8060024,2.151345,-0.8271825,0.54893446,-0.47235155,-3.52118,6.13156
480,1778415518.8161318,2.2057383,-0.746385,0.7471777,-0.13927728,-3.6134207,6.009387
481,1778415518.8262444,2.2472043,-0.70302886,1.0089613,0.03481932,-3.26706,5.982356
482,1778415518.8363492,2.2550097,-0.558996,1.1374444,0.062155537,-2.5363126,6.1117067
483,1778415518.8464732,2.3503811,-0.21982989,1.1448228,0.0729984,-1.7608191,6.2534275
484,1778415518.856572,2.4782543,-0.0001829375,1.0953078,0.11102476,-1.3677273,6.3148193
485,1778415518.8666737,2.7741253,0.43423265,1.012803,0.16829337,-0.79519385,6.244112
486,1778415518.8767743,3.0564587,0.9178584,0.94218916,0.10140363,-0.22937989,5.648518
487,1778415518.8868725,3.3033636,1.1203703,0.9118215,0.012370021,0.32070425,4.5416303
488,1778415518.8969646,3.471666,1.0621351,0.8711484,0.22113322,0.81138176,3.5430183
489,1778415518.907089,3.6791782,1.0500613,0.7605322,0.68768156,0.8605564,3.215442
490,1778415518.917251,4.229454,1.2152538,0.69424784,1.4442382,0.38728857,3.3441818
491,1778415518.9274492,5.0410256,1.4502066,0.79632694,1.9924897,-0.04016439,3.5753944
492,1778415518.9375787,5.693442,1.7569927,0.90389425,2.1143572,-0.172264,3.6008978
493,1778415518.9477124,6.4508643,2.0556076,1.1371396,2.0877848,0.029321533,3.372587
494,1778415518.9578261,6.953576,2.291902,1.267574,2.194228,0.64843345,2.8499918
495,1778415518.9679499,7.3468313,2.5656376,1.3247725,2.4252877,1.3524556,2.0118847
496,1778415518.9781077,7.373906,2.669363,1.0565251,2.780506,2.0132592,0.13225232
497,1778415518.9882288,6.9937615,2.4545944,0.9760935,3.2178855,1.8967366,-2.4013114
498,1778415518.998348,6.498062,1.7383332,1.1597629,3.8600576,1.5656476,-4.597219
499,1778415519.0084796,6.0605974,1.1482987,1.3454443,4.4128904,1.496009,-5.8093286
500,1778415519.018616,5.517456,0.54631233,1.3661773,4.8623347,1.7585284,-6.8632236
501,1778415519.0289872,5.1951814,0.2476364,1.2913558,4.920367,1.9679024,-7.3737545
502,1778415519.0391505,4.3663526,-0.20159712,1.0612814,4.749325,2.375044,-8.2181225
503,1778415519.0492866,3.8677866,-0.35691106,0.95316535,4.6433396,2.537076,-8.4811
504,1778415519.0595667,3.5049605,-0.42746398,0.8595624,4.6050076,2.6615398,-8.627402
505,1778415519.06968,2.4959383,-0.5798509,0.27471116,4.7473392,2.6401596,-8.819673
506,1778415519.079803,2.4959383,-0.5798509,0.27471116,5.101183,2.2437081,-9.1150255
507,1778415519.0902836,2.1562843,-0.6843082,0.06646729,5.4826684,1.454012,-9.44306
508,1778415519.100492,1.9337105,-0.7599224,-0.049454104,5.8044415,0.4100433,-9.775677
509,1778415519.1108263,1.7430286,-0.8973084,-0.10433535,6.014121,-0.54275376,-9.956645
510,1778415519.1212423,1.6038741,-1.0292674,-0.09622513,6.1474423,-1.7423404,-9.997573
511,1778415519.1316059,1.5378336,-1.0744529,-0.03585575,6.1103325,-2.8831313,-9.881509
512,1778415519.141845,1.5146616,-1.0670744,0.0001829375,5.996406,-3.483001,-9.763764
513,1778415519.1519468,1.6329612,-0.97511786,0.20056048,4.699081,-4.7290134,-9.329134
514,1778415519.162258,1.6329612,-0.97511786,0.20056048,4.699081,-4.7290134,-9.329134
515,1778415519.1727293,1.67772,-0.88858837,0.3360562,3.5268304,-4.803386,-9.096089
516,1778415519.1828327,1.7005872,-0.89285696,0.4191708,2.2467623,-4.6299005,-8.860295
517,1778415519.1930969,1.6928426,-0.8478543,0.49923643,0.59666264,-4.174348,-8.297382
518,1778415519.203254,1.6630238,-0.79992473,0.55594707,0.25411993,-3.9770381,-7.9791217
519,1778415519.2133605,1.7023554,-0.8218162,0.61723113,0.16203201,-3.7316232,-7.500662
520,1778415519.2234802,1.7632127,-0.7286401,0.66168493,0.09636399,-3.3269248,-6.9084277
521,1778415519.2335963,1.7778475,-0.60595,0.6156457,0.0106901415,-3.0718887,-6.643007
522,1778415519.2438393,1.7778475,-0.60595,0.6156457,0.0106901415,-3.0718887,-6.643007
523,1778415519.2539394,2.095793,-0.54869056,0.3538621,-0.3576616,-2.6224444,-6.373157
524,1778415519.2641783,2.1506133,-0.54539764,0.3108108,-0.3576616,-2.6224444,-6.373157
525,1778415519.2743895,2.1506133,-0.54539764,0.3108108,-1.052979,-2.1323779,-5.9628086
526,1778415519.2844858,2.2264712,-0.45691693,0.23897736,-1.416902,-1.7600555,-5.6882243
527,1778415519.2946002,2.2183,-0.3819735,0.15006974,-1.6409367,-1.106277,-5.546809
528,1778415519.3047547,2.1852493,-0.3998404,-0.008293167,-1.6409367,-1.106277,-5.546809
529,1778415519.314858,2.052559,-0.42722008,-0.10201815,-0.7984009,-1.0566442,-5.5061865
530,1778415519.324988,1.826448,-0.5306407,-0.23818462,-0.27275133,-1.2127203,-5.504354
531,1778415519.3350961,1.5759456,-0.5793021,-0.3041031,0.011759156,-1.4071281,-5.566204
532,1778415519.3453143,1.5759456,-0.5793021,-0.3041031,0.011759156,-1.4071281,-5.566204
533,1778415519.3557155,0.9573119,-0.9327983,-0.35752088,0.17654006,-1.6022996,-5.587737
534,1778415519.3658268,0.55320305,-1.2509876,-0.24513626,0.14508049,-1.9263636,-5.1560082
535,1778415519.3759475,0.0307335,-1.7546755,0.21562232,-0.4266894,-1.4153748,-4.7665815
536,1778415519.3860607,-0.6290611,-2.2882433,0.5399705,-1.1788172,-0.118202426,-4.4316745
537,1778415519.3961658,-1.3329437,-2.6719851,0.6864425,-1.7650951,1.1695015,-4.011552
538,1778415519.4064443,-2.1595771,-3.1971986,0.4431356,-2.1885774,2.660471,-3.3089044
539,1778415519.4165592,-2.903645,-3.682898,-0.21757366,-2.0744984,3.0182853,-2.543643
540,1778415519.4266927,-3.2618368,-3.8914464,-0.57588726,-1.7605137,2.5341744,-2.0457878
541,1778415519.4368973,-3.5300841,-4.175122,-0.67680776,-0.6249151,0.73746705,-0.60139686
542,1778415519.447003,-3.5782573,-4.1015806,-0.24849011,0.08506299,0.013897184,0.45616361
543,1778415519.4573975,-3.5782573,-4.1015806,-0.24849011,0.08506299,0.013897184,0.45616361
544,1778415519.4675288,-3.2815938,-3.600332,0.24013597,0.47647488,0.59864795,2.634662
545,1778415519.477634,-3.0023093,-3.2453113,-0.07341892,0.31902438,1.1655309,4.028351
546,1778415519.4877741,-2.7069871,-2.9406593,-0.20623155,0.23335053,1.2521211,5.2381697
547,1778415519.497945,-2.1881156,-2.5740526,-0.20647547,0.21700987,1.2319624,6.15966
548,1778415519.5081518,-1.4969776,-2.241594,-0.15415533,0.25992316,1.2803736,7.272809
549,1778415519.5182686,-0.7190664,-1.9252954,-0.104945146,0.29046643,1.3987287,8.319984
550,1778415519.5284503,-0.06512575,-1.6673534,-0.05110054,0.2237294,1.5825992,9.23781
551,1778415519.5385857,0.62192655,-1.4835621,0.024513626,-0.027183503,1.9086485,9.74941
552,1778415519.5487134,1.5723479,-1.1485426,-0.023355022,-0.8168796,2.46927,10.6365385
553,1778415519.5588744,1.5723479,-1.1485426,-0.023355022,-0.8168796,2.46927,10.6365385
554,1778415519.5690274,2.7358303,-0.69272333,-0.012012896,-1.982105,2.3165538,11.150887
555,1778415519.5791492,3.2666538,-0.3904496,0.22543997,-2.3623686,1.8686367,10.861642
556,1778415519.5893888,3.5936854,-0.17818113,0.4997243,-2.391232,1.3535247,10.09409
557,1778415519.5995378,3.6247847,-0.042136606,0.7857775,-2.0477731,0.86162543,9.06692
558,1778415519.6098976,3.429773,-0.019269416,0.9459698,-1.3536774,0.41493022,8.003404
559,1778415519.620303,3.1366463,-0.13519081,1.1243339,-0.6302602,0.12492194,7.240891
560,1778415519.630449,2.932305,-0.32544583,1.185557,-0.28893927,0.21212296,6.877732
561,1778415519.6406348,2.7760155,-0.56460613,1.2123878,-0.30390546,0.37873647,6.858642
562,1778415519.6507614,2.5930781,-0.7921194,1.194033,-0.73884153,0.89858276,7.1011558
563,1778415519.6609082,2.5930781,-0.7921194,1.194033,-0.73884153,0.89858276,7.1011558
564,1778415519.671042,2.4187386,-0.9204195,1.0903685,-1.4993688,1.41904,7.4006324
565,1778415519.6812096,2.2983658,-1.0349385,1.047744,-1.6517797,1.6187929,7.572591
566,1778415519.6913433,2.1995797,-1.0965273,0.9259077,-1.4795157,1.6119207,7.8216715
567,1778415519.7018135,2.0907927,-1.0900027,0.72052985,-0.65118235,1.308626,8.467508
568,1778415519.7119102,2.0830483,-1.0351213,0.62534136,-0.4008803,1.2301298,8.792794
569,1778415519.7220085,2.131039,-0.9275541,0.5379582,-0.44959682,1.2425,9.008736
570,1778415519.7321987,2.131039,-0.9275541,0.5379582,-0.44959682,1.2425,9.008736
571,1778415519.742489,2.155187,-0.8352927,0.3655701,-1.1640037,1.1969905,9.1748905
572,1778415519.7526095,2.21019,-0.53649473,0.14811839,-1.3286319,0.7287622,9.118233
573,1778415519.7628636,2.21019,-0.53649473,0.14811839,-1.3286319,0.7287622,9.118233
574,1778415519.7731817,2.215739,-0.40673104,0.21976891,-1.2835805,0.46914452,9.046456
575,1778415519.7833111,2.4316661,-0.0831146,0.27147925,-0.93584555,-0.021380283,8.678868
576,1778415519.7935066,2.6242995,0.09128582,0.31983575,-0.6000224,-0.13179417,8.486903
577,1778415519.8036368,2.9412692,0.336544,0.24855109,-0.19486602,-0.2848159,8.203768
578,1778415519.8137383,3.3136692,0.5132617,0.2719061,0.25778514,-0.58169645,7.790059
579,1778415519.8239558,3.6726534,0.87419736,0.5373484,0.68401635,-0.51175237,7.432245
580,1778415519.8340583,3.9826713,1.3045274,0.64211065,1.1149818,0.058490347,6.7607512
581,1778415519.8441854,4.2102456,1.583568,0.61717016,1.3413074,0.6105598,5.657834
582,1778415519.854294,4.424039,1.8551081,0.46929568,1.5346462,1.2157745,4.6108108
583,1778415519.8644164,4.424039,1.8551081,0.46929568,1.5346462,1.2157745,4.6108108
584,1778415519.8745315,4.572889,1.9901162,0.28410196,1.6417004,1.3944527,3.2114713
585,1778415519.8846533,4.842539,2.0545712,0.190255,1.8283197,1.1362094,2.1227567
586,1778415519.894792,5.5715446,1.999385,0.17665665,2.7919595,0.5888741,0.42256603
587,1778415519.9049041,5.606486,1.8523642,0.29318783,2.823419,0.5981898,-0.32406402
588,1778415519.9150124,5.395193,1.7123561,0.39502305,2.2030854,1.2055426,-1.0940597
589,1778415519.925129,5.102005,1.7130269,0.3533133,1.5318973,1.7505871,-1.6920967
590,1778415519.935258,4.8058906,1.6822933,0.22861089,0.86193085,2.0157025,-2.607631
591,1778415519.9454055,4.4806275,1.3421515,0.15305771,0.5705481,1.53205,-3.569591
592,1778415519.955507,4.3424487,1.167507,0.2660521,0.57619864,1.086882,-4.071875
593,1778415519.965736,4.3424487,1.167507,0.2660521,0.57619864,1.086882,-4.071875
594,1778415519.9758646,3.9053497,0.5948518,0.8597453,0.82604253,0.09972375,-5.32873
595,1778415519.9859776,3.9053497,0.5948518,0.8597453,0.82604253,0.09972375,-5.32873
596,1778415519.9961038,3.3672698,0.15531394,1.211717,0.7800749,0.6232353,-5.8621683
597,1778415520.0062213,3.1241457,0.07549221,1.1496402,0.8226828,1.0041097,-5.948911
598,1778415520.0163836,2.760527,0.07415067,1.0816485,1.0216721,1.187522,-6.0523
599,1778415520.0265167,2.411787,0.0629305,0.9565802,1.491122,1.2802209,-6.2280765
600,1778415520.0366383,2.090366,0.042014647,0.82462126,2.0804543,1.161102,-6.4201937
601,1778415520.0467606,1.8274237,0.0010366458,0.7134563,2.675437,0.92255926,-6.590472
602,1778415520.0568888,1.668512,-0.014086187,0.6329638,3.105639,0.657291,-6.7297497
603,1778415520.0670178,1.536797,-0.043905,0.5348483,3.483001,0.3475823,-6.895447
604,1778415520.0772698,1.4245343,-0.082077965,0.42801276,3.8970149,-0.21074851,-7.141473
605,1778415520.087391,1.3566645,-0.122446164,0.4173414,4.2131376,-0.8349001,-7.433161
606,1778415520.0975664,1.3566645,-0.122446164,0.4173414,4.3461537,-1.3048081,-7.68102
607,1778415520.10769,1.3566645,-0.122446164,0.4173414,4.3359213,-1.7945694,-7.9398737
608,1778415520.1177976,1.3326998,-0.40624323,0.60784036,4.1645737,-2.1084013,-8.031504
609,1778415520.1279495,1.3631283,-0.48460147,0.67631996,3.9428296,-2.2568417,-8.036849
610,1778415520.138092,1.425754,-0.48362577,0.71107805,3.6442692,-2.3709207,-7.983856
611,1778415520.1481886,1.5164909,-0.4471602,0.7149198,3.3224962,-2.4414756,-7.9808016
612,1778415520.1583002,1.5647255,-0.4311227,0.70394355,3.1375566,-2.4959953,-8.005847
613,1778415520.168659,1.7322961,-0.43807435,0.68973535,2.7982209,-2.6064093,-8.018522
614,1778415520.178766,1.9062088,-0.48484537,0.7774234,2.2742512,-2.5781567,-7.912996
615,1778415520.1888692,1.949382,-0.46283188,0.8228529,1.9556851,-2.3942864,-7.8445787
616,1778415520.198972,2.0868902,-0.5030171,0.7671179,1.7176003,-2.2434027,-7.734318
617,1778415520.2090774,2.159516,-0.5191766,0.76937413,1.6097827,-2.122146,-7.5458655
618,1778415520.219182,2.3138545,-0.43807435,0.69132084,1.4564555,-1.9138408,-7.464468
619,1778415520.2292964,2.4022133,-0.40069413,0.62717074,1.19134,-1.7098118,-7.5362444
620,1778415520.2394009,2.4392278,-0.40532854,0.53173834,0.73991054,-1.4517213,-7.6988873
621,1778415520.2494998,2.496792,-0.49124816,0.49063838,0.35964692,-1.2060007,-7.7731075
622,1778415520.2595997,2.470754,-0.5898515,0.40673104,-0.08628472,-0.86819226,-7.6836157
623,1778415520.269697,2.4076405,-0.61424315,0.37014353,-0.31337386,-0.6921103,-7.5722857
624,1778415520.279803,2.306476,-0.6923575,0.2561735,-0.58551437,-0.38896844,-7.312057
625,1778415520.2898998,2.1212213,-0.7354088,0.09707884,-0.5859725,-0.29000828,-7.05137
626,1778415520.3000882,1.9532847,-0.7793747,-0.029452939,-0.38912117,-0.46700647,-6.7880874
627,1778415520.3101885,1.7648591,-0.8455981,-0.051710334,-0.08200866,-0.7002043,-6.50037
628,1778415520.3202891,1.5960077,-0.9024917,-0.07701669,0.16584991,-0.7883216,-6.296188
629,1778415520.3303869,1.1908622,-0.92023665,-0.088968605,0.40317106,-0.70402217,-6.271448
630,1778415520.3405287,0.81193763,-1.068294,-0.1572043,0.6782131,-0.41615194,-6.584669
631,1778415520.3506114,-0.60351086,-2.1476862,-0.6260121,0.63148195,-0.19043724,-6.785644
632,1778415520.3607042,-0.60351086,-2.1476862,-0.6260121,0.63148195,-0.19043724,-6.785644
633,1778415520.3708284,-1.1528721,-2.4333737,-0.6168653,0.18936823,-0.30375275,-6.5342727
634,1778415520.3809636,-1.9267588,-2.9554775,-0.48143053,-0.6927212,-0.07070765,-5.7102156
635,1778415520.391053,-2.7934556,-3.4349566,-0.49283364,-1.6439911,0.7309003,-4.374406
636,1778415520.4011853,-3.3214743,-3.7433891,-0.6669901,-2.1233675,1.2006557,-3.2200234
637,1778415520.411483,-3.9703534,-3.9993188,-0.94907975,-1.4966198,0.6589709,-0.8790351
638,1778415520.4215786,-4.042248,-3.9644384,-0.82888985,-0.31856623,0.08735373,0.57787853
639,1778415520.4317856,-3.9765127,-3.784916,-0.7309573,0.97310835,-0.22922719,2.1991148
640,1778415520.4418845,-3.9765127,-3.784916,-0.7309573,1.8101465,-0.3585779,3.9683332
641,1778415520.4519918,-3.146708,-3.3802583,-0.5808266,1.8101465,-0.3585779,3.9683332
642,1778415520.4622314,-3.146708,-3.3802583,-0.5808266,2.0842721,0.124311075,6.491665
643,1778415520.4723327,-1.8962082,-2.6709485,-0.52997,2.0221167,0.8391761,7.9849253
644,1778415520.4824915,-1.8962082,-2.6709485,-0.52997,2.0221167,0.8391761,7.9849253
645,1778415520.492625,0.1515942,-1.8542545,-1.0751847,1.885741,1.103528,10.453279
646,1778415520.5027277,0.9359082,-1.4531946,-1.0396948,1.7809776,0.8063421,10.824685
647,1778415520.512855,1.7987026,-1.0415852,-0.8318778,1.555721,0.590554,10.863322
648,1778415520.5229814,2.488072,-0.6884548,-0.6697342,1.2292136,0.44990227,10.562929
649,1778415520.5330882,2.9984677,-0.5431415,-0.44337955,0.8651379,0.31795537,10.270325
650,1778415520.5432513,3.4937403,-0.37947336,-0.051283482,0.21960606,0.32375857,9.88044
651,1778415520.5533738,3.4937403,-0.37947336,-0.051283482,-0.4531093,0.43203443,9.26087
652,1778415520.5635247,3.8157716,-0.12695862,0.36288702,-0.4531093,0.43203443,9.26087
653,1778415520.573749,3.7915628,0.02042802,0.6875401,-0.78694713,0.6267477,8.764084
654,1778415520.5839906,3.535877,0.16037522,1.1181141,-1.1070405,1.1661417,7.846717
655,1778415520.5941036,3.0949976,0.19574313,1.3243456,-0.9805914,1.7079792,7.079012
656,1778415520.6042006,2.6441786,-0.03640456,1.323065,-0.06093381,2.3443482,6.5996356
657,1778415520.6143045,2.219215,-0.3017249,1.0893928,0.064751714,2.5776987,6.6550713
658,1778415520.624497,2.0065804,-0.36752144,0.99280185,-0.19608775,2.8492281,6.6103253
659,1778415520.634621,1.838278,-0.45331916,0.9160901,-0.603993,3.0903673,6.558402
660,1778415520.6447494,1.6095451,-0.5556422,0.8441346,-1.1472049,3.3454034,6.559318
661,1778415520.6548676,1.3855077,-0.64442784,0.73315257,-1.5503759,3.4970508,6.6651506
662,1778415520.6649976,1.2569027,-0.7444947,0.60290104,-1.7938058,3.4636059,6.9710417
663,1778415520.675118,1.1381761,-0.7748623,0.47704002,-1.95034,3.2775974,7.3125153
664,1778415520.685243,1.1381761,-0.7748623,0.47704002,-1.95034,3.2775974,7.3125153
665,1778415520.6953712,1.0648792,-0.70394355,0.3231896,-2.5367706,2.7672195,8.056702
666,1778415520.705493,1.1820202,-0.6261951,0.23763582,-3.1383202,2.4691174,8.361981
667,1778415520.7156093,1.3076982,-0.6107673,0.20982932,-3.6128097,2.2111795,8.493623
668,1778415520.7257168,1.4438647,-0.59466887,0.2461729,-4.252844,1.8854356,8.608466
669,1778415520.7358384,1.5170397,-0.4952118,0.30660325,-4.832402,1.6003143,8.568606
670,1778415520.7459574,1.5199667,-0.3823394,0.4416111,-5.0932417,1.3846788,8.438798
671,1778415520.756102,1.5448463,-0.22324473,0.5597278,-5.0022225,1.2562444,8.402146
672,1778415520.766218,1.5664937,0.006219875,0.50722474,-4.665941,1.1325442,8.383973
673,1778415520.776361,1.7357111,0.1803154,0.36105764,-4.2012258,0.7742717,8.230799
674,1778415520.7865944,2.125185,0.28940713,0.23781876,-3.6007452,-0.109650314,7.781812
675,1778415520.7966971,2.511549,0.3731925,0.3574599,-3.0164526,-1.1177307,6.9913526
676,1778415520.8068109,2.8665087,0.41404852,0.7241276,-2.4278839,-1.7508925,6.0509257
677,1778415520.817038,3.1199381,0.4686249,1.0482929,-1.7003434,-1.6705637,5.3635497
678,1778415520.8272293,3.3905637,0.71101713,1.2501339,-0.8880454,-1.1071932,4.863098
679,1778415520.8374705,3.784916,0.8826125,1.1824471,-0.3051272,-0.56169057,4.24139
680,1778415520.8476596,4.328301,0.96773934,1.0514638,-0.118202426,-0.3494149,3.6425896
681,1778415520.8577926,4.6731997,1.0136567,0.9954239,-0.23762658,-0.40332377,2.9011517
682,1778415520.868066,5.0676737,0.8611478,1.1743368,-0.6033822,-0.5235115,1.9269744
683,1778415520.8782172,5.3700085,0.5464953,1.4158753,-0.853226,-0.355829,1.4720325
684,1778415520.8883393,5.643317,0.35337427,1.7351012,-0.9056077,0.21853705,1.3596333
685,1778415520.8984663,5.6218524,0.61515784,1.9821887,-0.6404922,1.2049317,1.3229814
686,1778415520.9085977,5.584533,0.9113946,1.9066355,-0.0759,2.204002,0.91247994
687,1778415520.918754,5.446781,1.1540917,1.580763,0.8425359,2.7017043,0.03283401
688,1778415520.9289234,5.3090296,1.2056801,1.2321451,1.7197384,2.503631,-0.93309665
689,1778415520.9390543,5.126031,1.1204922,0.9585315,2.779895,1.6554449,-2.2687535
690,1778415520.949186,4.8461976,0.9935945,1.004144,3.5761578,0.6966918,-3.6008978
691,1778415520.9594624,4.563559,0.8449273,1.1626898,3.923893,0.31581733,-4.50788
692,1778415520.9696183,4.177256,0.61058444,1.29349,3.956116,0.3998113,-5.3524013
693,1778415520.9797783,3.8309553,0.46270993,1.3039784,3.7882807,0.7635816,-5.839566
694,1778415520.9900742,2.9868815,0.20928052,0.97834975,3.589597,1.294118,-6.249151
695,1778415521.000202,2.9868815,0.20928052,0.97834975,3.6192238,1.6326901,-6.524194
696,1778415521.0103047,2.6457033,0.14037405,0.74071395,3.8484511,1.6061175,-6.751741
697,1778415521.0204322,2.370992,0.1290929,0.59979105,4.108069,1.3681854,-6.9797463
698,1778415521.0306125,1.9262099,-0.025916148,0.43502536,4.690223,0.63514715,-7.6596394
699,1778415521.0408506,1.9262099,-0.025916148,0.43502536,4.690223,0.63514715,-7.6596394
700,1778415521.0511088,1.7879701,-0.12104365,0.31892106,4.915938,0.27916542,-8.044179
701,1778415521.0614562,1.7199174,-0.24983165,0.22702545,5.05323,-0.2657264,-8.440325
702,1778415521.0716085,1.6897327,-0.354228,0.18153499,5.0935473,-0.67363167,-8.659167
703,1778415521.0817215,1.697477,-0.5380192,0.16269243,5.1004195,-1.427592,-8.983232
704,1778415521.0918837,1.718027,-0.6549163,0.21976891,5.048496,-2.1583397,-9.257968
705,1778415521.1019845,1.8027271,-0.7449825,0.32306764,4.905706,-3.6134207,-9.581574
706,1778415521.1121147,1.8702922,-0.7712035,0.38575423,4.905706,-3.6134207,-9.581574
707,1778415521.1222227,2.0686574,-0.7911437,0.49021152,4.624708,-4.800943,-9.45207
708,1778415521.1323237,2.2728765,-0.7637031,0.64735484,4.08791,-5.1031685,-9.218262
709,1778415521.142426,2.4108114,-0.69089395,0.8010833,3.277292,-4.992449,-8.95055
710,1778415521.1525486,2.4974627,-0.66046536,0.9421281,2.5364652,-4.5964556,-8.768818
711,1778415521.1626782,2.479596,-0.6290611,1.0514638,1.6491834,-3.6978729,-8.621599
712,1778415521.1728368,2.479596,-0.6290611,1.0514638,1.6491834,-3.6978729,-8.621599
713,1778415521.183041,2.3087933,-0.64735484,0.8435248,1.0645854,-2.9130635,-8.592584
714,1778415521.1931627,2.3087933,-0.64735484,0.8435248,0.6553057,-2.182316,-8.582504
715,1778415521.2032838,2.1232336,-0.70760226,0.62424374,0.9095783,-2.035403,-8.468577
716,1778415521.2134054,1.843888,-0.9684711,0.18464492,1.2716687,-2.6450465,-8.167269
717,1778415521.2235312,1.79419,-0.9474943,0.17940071,1.4662293,-3.2261322,-7.7822704
718,1778415521.2336574,1.6963794,-0.85419625,0.26092985,1.3515394,-3.6716056,-7.348556
719,1778415521.2438056,1.665768,-0.84273213,0.3626431,0.86498517,-3.7207801,-6.963253
720,1778415521.2539093,1.5758846,-0.84681773,0.50356597,0.34238997,-3.44528,-6.6124635
721,1778415521.2640386,1.3684945,-0.80852276,0.5347263,-0.22724187,-2.8715248,-6.1727934
722,1778415521.2741563,1.3684945,-0.80852276,0.5347263,-0.22724187,-2.8715248,-6.1727934
723,1778415521.2842557,0.9156632,-0.8484642,0.36837515,-0.4476115,-2.1621575,-5.578574
724,1778415521.2943726,0.9156632,-0.8484642,0.36837515,-0.4476115,-2.1621575,-5.578574
725,1778415521.3046062,0.40910926,-0.9990217,-0.042319544,0.43982297,-2.6685648,-5.0927835
726,1778415521.3147626,0.14214244,-1.2253764,-0.021464668,0.43982297,-2.6685648,-5.0927835
727,1778415521.3248916,-0.2464778,-1.5189911,0.23666015,0.8034405,-3.3339498,-5.0937
728,1778415521.3350136,-0.7419945,-1.8625476,0.5898515,0.069485925,-2.8281534,-5.147914
729,1778415521.345161,-1.425754,-2.414775,1.079758,-1.0302242,-1.4845552,-4.906164
730,1778415521.3553083,-2.169334,-3.1564035,1.1409812,-1.6420058,-0.17608191,-4.259411
731,1778415521.3654497,-2.7997975,-3.509778,0.8735875,-1.7391334,0.79458296,-3.0077477
732,1778415521.3755815,-3.3320236,-3.8571763,0.47929627,-1.1982121,0.8005389,-1.805565
733,1778415521.3857694,-3.6325293,-3.9012032,0.26660094,-0.06047566,0.049480084,-0.28863382
734,1778415521.3958707,-3.5460603,-3.7969291,0.5307627,1.2179126,-0.40698898,1.183246
735,1778415521.4059641,-3.3541589,-3.5805748,0.6066208,2.0534234,-0.18310685,2.4770586
736,1778415521.4160924,-3.106096,-3.4565432,0.54606843,2.1568124,0.30741793,3.4322991
737,1778415521.4262104,-2.7586365,-3.2349448,0.3673385,1.7719674,1.0758864,4.8908925
738,1778415521.43635,-2.2718399,-3.026091,0.17110755,1.6276505,1.5329664,5.85102
739,1778415521.4464753,-1.7301619,-2.8344338,-0.053844605,1.7229455,1.8680259,6.8233647
740,1778415521.4566321,-1.0516467,-2.5250254,-0.34087354,1.9614882,2.1252003,7.9592686
741,1778415521.4667325,-0.29861498,-2.2576315,-0.6269878,2.1149683,2.3237314,9.0065975
742,1778415521.4768882,0.38593715,-2.0217032,-0.8498667,1.9847012,2.4465153,9.974666
743,1778415521.4869916,1.094759,-1.7807747,-1.006705,1.5464053,2.4840834,10.647228
744,1778415521.4971104,2.0310333,-1.3308704,-1.1000032,0.61575216,2.5025623,11.2144165
745,1778415521.5072842,2.6625333,-0.91462654,-1.115065,-0.4541783,2.2032382,11.2724495
746,1778415521.517538,3.015298,-0.6193044,-0.99316764,-1.1578951,1.7185167,10.931434
747,1778415521.5276616,3.3351338,-0.40063316,-0.7043094,-1.6714801,0.9673051,10.234283
748,1778415521.5377617,3.45075,-0.19623096,-0.31922594,-1.817935,0.31535918,9.432218
749,1778415521.5479045,3.357574,-0.023050126,-0.04317325,-1.7521143,0.005955936,8.676119
750,1778415521.5580223,3.08829,0.04622221,0.15738723,-1.5685493,-0.19792034,7.7477565
751,1778415521.5682826,2.7473555,0.0048783333,0.30873755,-1.452943,-0.31581733,6.993949
752,1778415521.578445,2.5657594,-0.058174126,0.37300956,-1.4566082,-0.31474832,6.6269717
753,1778415521.5885487,2.2900116,-0.24007498,0.46417344,-1.5829046,-0.16584991,6.157369
754,1778415521.5986555,2.0055437,-0.5127738,0.50771254,-1.9628627,0.21365012,5.9121065
755,1778415521.6087608,1.8432173,-0.68912554,0.4855771,-2.4654522,0.53130007,5.931043
756,1778415521.6188755,1.7136366,-0.78169197,0.45350206,-2.9631546,0.7076874,6.0391665
757,1778415521.6290061,1.592105,-0.85084236,0.4417331,-3.6381607,0.8597928,6.257704
758,1778415521.6391625,1.4902089,-0.90060127,0.3684971,-4.3001857,0.8718574,6.53244
759,1778415521.6492956,1.4400231,-0.9192609,0.28806558,-4.7503934,0.69714993,6.7299023
760,1778415521.6594288,1.437096,-0.9232856,0.20245083,-5.1364603,0.1601994,6.894531
761,1778415521.669534,1.4306931,-0.863709,0.25513685,-5.225494,-0.5847508,6.9236994
762,1778415521.6798265,1.445816,-0.8513911,0.3401418,-5.1795263,-1.0083858,6.9177437
763,1778415521.6899605,1.4770983,-0.7984612,0.51387143,-5.060255,-1.4914275,6.8766627
764,1778415521.7001665,1.4522799,-0.70065063,0.66223377,-4.937013,-1.7188221,6.711271
765,1778415521.7104497,1.3795927,-0.67266124,0.72943276,-4.8269043,-1.7230982,6.566954
766,1778415521.7205799,1.3214796,-0.632232,0.68857676,-4.5912633,-1.8451185,6.423706
767,1778415521.7310433,1.4761837,-0.5317993,0.5098468,-3.6887097,-2.794403,6.2517476
768,1778415521.7411249,1.4761837,-0.5317993,0.5098468,-3.133128,-3.3788483,6.1144557
769,1778415521.7512543,1.7027214,-0.48850408,0.5612523,-3.133128,-3.3788483,6.1144557
770,1778415521.761371,2.0670717,-0.35032532,1.0926857,-1.6113098,-4.066377,5.6025505
771,1778415521.7715783,2.0670717,-0.35032532,1.0926857,-1.6113098,-4.066377,5.6025505
772,1778415521.7817667,2.2470212,-0.21696389,1.3300166,-0.73624533,-3.727347,5.454874
773,1778415521.7918968,2.4392278,-0.076102,1.38441,-0.18677205,-3.3577735,5.4718256
774,1778415521.802231,2.9845643,0.31940886,1.2189735,0.6433938,-2.656653,5.5918603
775,1778415521.8123553,4.171402,1.1313465,0.9095043,0.47403142,-2.1470387,4.8441615
776,1778415521.8224576,4.6969814,1.2159246,0.99213105,-0.48365256,-2.1372647,3.695124
777,1778415521.8325765,5.0263906,1.0568908,1.3095276,-1.2330315,-1.9790506,2.894127
778,1778415521.8427007,5.3017726,0.8357805,1.7515045,-1.6786577,-1.5209018,2.5896106
779,1778415521.8528028,5.5539217,0.8616357,2.1288435,-1.6279559,-0.9034697,2.9350548
780,1778415521.862939,5.9061985,1.0886611,2.4608142,-1.3448198,-0.15347989,3.510948
781,1778415521.8730652,6.1449924,1.4719762,2.6624115,-1.0677924,0.7809912,3.6231945
782,1778415521.8832393,6.1449924,1.4719762,2.6624115,-1.0677924,0.7809912,3.6231945
783,1778415521.893609,6.2324977,1.9441378,2.6130183,-0.71669763,1.9150625,3.0034716
784,1778415521.9038813,6.0867577,2.300744,2.2091534,-0.00290161,2.9032898,1.2628112
785,1778415521.9139938,5.1034074,1.9954214,1.4820987,2.8619037,2.3651175,-3.2119296
786,1778415521.924246,4.580694,1.460451,1.3822148,4.3542476,1.5929838,-4.9287663
787,1778415521.9343674,4.2398205,1.0546347,1.3295288,5.1213417,1.1893547,-5.859572
788,1778415521.944516,3.9008374,0.61808485,1.2798917,5.3899693,1.0803152,-6.6026897
789,1778415521.9546745,3.561793,0.2598932,1.1894597,4.992602,1.4465289,-6.8833823
790,1778415521.9648442,3.2952533,0.11708001,1.0775019,4.240321,2.0670152,-6.8943777
791,1778415521.9749944,3.044202,0.038538832,0.9261516,3.7178786,2.5100453,-6.882466
792,1778415521.9851267,2.7396111,-0.06793079,0.699797,2.9028316,3.0946434,-6.8452034
793,1778415521.995254,2.455509,-0.1393374,0.4736252,2.382069,3.419471,-6.831001
794,1778415522.00539,2.2353745,-0.20928052,0.2628202,2.2635612,3.307988,-6.84841
795,1778415522.0155149,2.0743282,-0.25903952,0.1557408,2.5674667,2.8298333,-6.985397
796,1778415522.0256824,1.9661512,-0.30081022,0.18068127,3.1241176,2.2224805,-7.2586064
797,1778415522.0360112,1.8749874,-0.41575596,0.21525647,3.7936258,1.6856827,-7.6772017
798,1778415522.0461302,1.9311492,-0.58119243,0.13043444,4.3208027,1.1519392,-8.0246315
799,1778415522.0562646,2.0056658,-0.68516195,0.06561358,4.899292,0.23441954,-8.469799
800,1778415522.0663865,2.0575593,-0.69973594,0.11317733,5.251303,-0.4972443,-8.878162
801,1778415522.0765162,2.1455522,-0.76821554,0.2757478,5.339726,-1.1287262,-9.365786
802,1778415522.086656,2.145369,-0.848952,0.36185038,5.0162725,-1.2838861,-9.722531
803,1778415522.096963,2.145369,-0.848952,0.36185038,5.0162725,-1.2838861,-9.722531
804,1778415522.1070702,2.0971954,-1.0148762,0.2652594,3.942677,-1.363604,-9.791407
805,1778415522.1171892,2.019447,-1.0572568,0.23952618,3.3327281,-1.3868169,-9.519724
806,1778415522.1273096,1.9353569,-1.053842,0.18824269,2.8206704,-1.4417948,-9.134115
807,1778415522.1374183,1.8723654,-1.0270721,0.15671647,2.526386,-1.5593863,-8.776607
808,1778415522.1475816,1.8685846,-0.90480894,0.12823918,2.2353086,-1.7892243,-8.383667
809,1778415522.1576738,1.9123677,-0.74540937,0.14415476,1.7728837,-1.8941404,-8.234769
810,1778415522.167803,1.943711,-0.7093097,0.15354554,1.1895074,-1.8197676,-8.264396
811,1778415522.1779273,1.993531,-0.7723621,0.089517415,0.44241914,-1.69622,-8.310516
812,1778415522.1880739,2.014142,-0.8479763,0.073845774,-0.082161374,-1.6885842,-8.132754
813,1778415522.198212,2.0059097,-0.91663885,0.112750486,-0.32788193,-1.7003434,-7.8219767
814,1778415522.2083974,2.0059097,-0.91663885,0.112750486,-0.32788193,-1.7003434,-7.8219767
815,1778415522.21865,2.1183553,-0.91706574,0.17946169,-0.45860708,-1.7246253,-6.5726047
816,1778415522.2287776,2.0723162,-0.72278607,0.32294568,-0.46807548,-1.6398678,-5.9826617
817,1778415522.2389042,2.0789626,-0.6269878,0.4366718,-0.48762318,-1.2223413,-5.6343155
818,1778415522.2490337,1.9924942,-0.57033813,0.46874684,-0.52473325,-0.7131852,-5.523138
819,1778415522.259163,1.7625419,-0.54301953,0.38624203,-0.48655418,-0.05971208,-5.6094227
820,1778415522.269281,1.4835621,-0.6045475,0.19842622,-0.27290404,0.20799962,-5.8681245
821,1778415522.2794058,0.9346887,-0.84498835,-0.077260606,0.30863968,0.13591751,-6.3843055
822,1778415522.2895048,0.3134939,-1.3222723,-0.37514386,1.0763446,-0.4654793,-6.8981957
823,1778415522.299631,-0.24684367,-1.8282773,-0.40984097,1.488984,-1.2240212,-7.050301
824,1778415522.3097398,-1.1068329,-2.5020971,-0.10634767,1.4651603,-1.7725782,-6.7938905
825,1778415522.3199842,-2.0099955,-3.1746364,0.33690992,0.9118691,-1.4387404,-6.0353484
826,1778415522.3301194,-2.5635033,-3.9594383,0.58448535,0.16875152,-0.23182335,-4.6288314
827,1778415522.340273,-3.2947044,-4.558376,0.36075276,-0.5158757,0.7504479,-3.3040173
828,1778415522.3504086,-3.7718053,-4.7602777,0.09329812,-1.1464413,1.1065824,-1.5438092
829,1778415522.360538,-4.019991,-4.568376,0.1797056,-1.0578659,1.1139128,0.15363261
830,1778415522.3706605,-3.9488888,-4.2806153,0.059942525,-0.18203785,0.978148,1.6948457
831,1778415522.3808405,-3.7391207,-3.9837692,-0.10848194,0.7049385,0.70952,2.8541152
832,1778415522.3909583,-3.3031194,-3.7058868,-0.17110755,1.5129606,0.4343252,4.245361
833,1778415522.4011192,-2.628019,-3.33367,-0.22354963,1.7492126,0.49846604,5.2586336
834,1778415522.4112513,-1.2531829,-2.6834493,-0.6752833,1.640784,0.79244494,6.3870544
835,1778415522.4215186,-1.2531829,-2.6834493,-0.6752833,1.3417655,0.83658,7.39712
836,1778415522.431642,-0.5200913,-2.4361176,-0.7704718,1.0994047,0.6114761,8.396343
837,1778415522.4417484,0.079333894,-2.2109215,-0.7843141,1.0369438,0.34193182,9.114873
838,1778415522.4519076,0.8800513,-1.9949944,-0.70882183,1.081995,0.03313944,9.917855
839,1778415522.4620686,1.5500904,-1.8077275,-0.6288172,1.0719157,-0.061850104,10.536967
840,1778415522.472188,2.9918208,-1.1350663,-0.52881134,0.40103304,0.06505715,11.313377
841,1778415522.4824839,3.395381,-0.91639495,-0.44892865,0.40103304,0.06505715,11.313377
842,1778415522.4925776,3.395381,-0.91639495,-0.44892865,-0.77656245,0.2835942,10.730917
843,1778415522.50269,3.6272848,-0.72754246,-0.2651374,-0.77656245,0.2835942,10.730917
844,1778415522.5128126,3.635761,-0.59174186,-0.10348164,-1.4668401,0.35705075,10.1922865
845,1778415522.5229146,3.3761725,-0.45100194,0.23568448,-2.075873,0.052534413,9.027061
846,1778415522.5330334,3.1175601,-0.48155248,0.4610635,-2.0489948,0.0076358155,8.591056
847,1778415522.5432317,2.8397388,-0.61216986,0.59765685,-1.9595029,0.19746219,8.202546
848,1778415522.5533535,2.6061277,-0.6979676,0.5177741,-1.8574885,0.3849978,7.9901175
849,1778415522.5634513,2.476181,-0.78626543,0.40935317,-1.8023579,0.38713586,7.9223113
850,1778415522.573551,2.3956885,-0.8516961,0.32977533,-1.8403842,0.3005457,7.9189515
851,1778415522.5836782,2.3349533,-0.87755126,0.2795895,-1.9706513,0.17455475,7.950564
852,1778415522.5938249,2.2823892,-0.8464518,0.20178007,-2.272877,-0.13133603,7.998517
853,1778415522.6039357,2.2583635,-0.7798016,0.14793546,-2.4459045,-0.5850562,7.9383464
854,1778415522.6140592,2.2583635,-0.7798016,0.14793546,-2.4459045,-0.5850562,7.9383464
855,1778415522.6241899,2.0737796,-0.61784095,0.37679026,-2.276542,-1.2892311,7.56862
856,1778415522.6343954,1.9251732,-0.541556,0.4425258,-2.0485365,-1.3243558,7.349625
857,1778415522.6445436,1.8084593,-0.46460027,0.37977824,-1.7825048,-1.3283265,7.150025
858,1778415522.6546633,1.7386991,-0.4131339,0.22172025,-1.5015068,-1.4914275,6.957297
859,1778415522.6649067,1.7407112,-0.36666775,0.0690894,-1.2988522,-1.844813,6.8018317
860,1778415522.675015,1.7407112,-0.36666775,0.0690894,-1.2988522,-1.844813,6.8018317
861,1778415522.685282,1.9592607,-0.32879966,0.09287128,-1.2823589,-2.9281826,6.4146957
862,1778415522.6953793,2.1700656,-0.3088595,0.39258388,-1.5673275,-3.029128,6.4773097
863,1778415522.705519,2.2909873,-0.13080032,0.778704,-1.5673275,-3.029128,6.4773097
864,1778415522.7156398,2.2909873,-0.13080032,0.778704,-1.9781344,-2.6057985,6.647283
865,1778415522.7257655,2.5560029,0.33849534,1.1022594,-2.4026856,-0.9294315,6.7578497
866,1778415522.7360446,2.7942483,0.63101244,0.9745691,-2.3339634,0.0012217305,6.527248
867,1778415522.7461624,3.0285912,0.96895903,0.6462572,-2.1789563,0.37415496,5.924324
868,1778415522.756292,3.290131,1.2129976,0.430269,-2.0066924,0.10629055,4.9861875
869,1778415522.7664092,3.5061803,1.3823978,0.37977824,-1.866346,-0.3904956,4.1508293
870,1778415522.7765465,3.708326,1.4545971,0.50996876,-1.7015651,-0.9753991,3.3677
871,1778415522.78668,4.077189,1.3561157,0.8890763,-1.3009902,-1.438435,2.702315
872,1778415522.796884,4.4777613,1.2929413,1.1593969,-1.0384709,-1.4362969,2.6225972
873,1778415522.8069904,5.269881,1.2758061,1.4527677,-0.6608035,-1.0752755,2.6988027
874,1778415522.8171084,5.8199124,1.4644758,1.6918061,-0.64904433,-0.21899518,2.643672
875,1778415522.8273966,6.063098,1.7578465,1.7440652,-0.8078693,0.75869465,2.1975877
876,1778415522.8375146,6.181763,2.0323749,1.5960687,-0.91507614,1.8358028,0.9130908
877,1778415522.8476381,6.1037707,2.0349967,1.4070942,-0.7141015,2.2612705,-0.59574634
878,1778415522.8577504,5.7941184,1.6893668,1.2395235,0.20952678,2.1552854,-3.0338624
879,1778415522.8679693,5.40562,1.1733003,1.1833618,1.0861185,1.7461584,-4.297437
880,1778415522.8780828,5.0984683,0.7739476,1.2297059,2.0949624,1.3096951,-5.3004775
881,1778415522.8882294,4.8227816,0.45801452,1.2987953,2.0949624,1.3096951,-5.3004775
882,1778415522.8983412,4.5092874,0.18720604,1.296783,2.6314547,1.6635388,-5.966168
883,1778415522.9084928,4.1174355,0.034087352,1.0924418,2.2934935,2.525317,-6.0532165
884,1778415522.9186118,3.817479,0.045612417,0.8735875,1.9025398,3.1775682,-6.1107903
885,1778415522.9289033,3.454897,0.06225973,0.5275307,1.6991217,3.4271069,-6.2270074
886,1778415522.9392114,3.0315185,0.113421254,0.35514265,1.7102699,3.352123,-6.5209866
887,1778415522.949622,2.678815,0.048661377,0.23281845,2.0176878,3.0584495,-6.8951416
888,1778415522.9599943,2.4473379,-0.0160985,0.18104716,2.4260514,2.7183504,-7.226383
889,1778415522.9701385,2.2928777,-0.12665373,0.14098383,2.905428,2.324953,-7.589084
890,1778415522.9802969,2.1826885,-0.2587956,0.097444706,3.4712417,1.8115209,-8.087398
891,1778415522.9904232,2.0912197,-0.4167926,0.011647021,3.9449677,1.2032518,-8.646034
892,1778415523.0006735,2.0651205,-0.5758263,-0.064637914,4.1975603,0.627664,-9.121745
893,1778415523.0109298,2.0479853,-0.9320666,-0.03469715,4.321566,-0.04260785,-9.680687
894,1778415523.0210545,2.0479853,-0.9320666,-0.03469715,4.1642685,-0.5919284,-10.1754875
895,1778415523.0312312,2.060974,-1.1275657,-0.07396773,3.8037052,-1.0312933,-10.308351
896,1778415523.0413928,2.060852,-1.2254983,-0.05195425,3.3950362,-1.3475688,-10.226342
897,1778415523.0515141,2.0393264,-1.2404382,0.024574606,2.7942502,-1.5769486,-9.995436
898,1778415523.0617428,2.0868292,-1.282148,0.17543708,1.6331482,-1.4474452,-9.250791
899,1778415523.0718462,2.0966468,-1.2319622,0.16000934,1.0519099,-1.1823297,-8.806539
900,1778415523.081985,2.0966468,-1.2319622,0.16000934,1.0519099,-1.1823297,-8.806539
901,1778415523.0921288,2.1229897,-1.1554942,0.143423,0.66507953,-1.0137309,-8.523403
902,1778415523.102256,2.1668947,-1.0868317,0.12287302,0.2932153,-0.8668178,-8.322428
903,1778415523.1123805,2.2028725,-0.9992657,0.06335735,-0.14172074,-0.74388117,-8.206516
904,1778415523.122485,2.289097,-0.96651983,0.13775194,-0.7076874,-0.56581396,-8.139474
905,1778415523.132704,2.3249526,-1.0426219,0.12982465,-0.8907942,-0.42485678,-7.971028
906,1778415523.142809,2.3106835,-1.1312855,0.13238578,-0.9633345,-0.29657507,-7.7779946
907,1778415523.1529403,2.2326913,-1.1107355,0.12817821,-0.9222538,-0.19303341,-7.48707
908,1778415523.163045,2.115611,-1.0774409,0.1853157,-0.81061816,-0.056046885,-7.197978
909,1778415523.1731946,2.115611,-1.0774409,0.1853157,-0.81061816,-0.056046885,-7.197978
910,1778415523.1833084,1.8237649,-1.0123762,0.18305947,-0.5299256,0.1910481,-6.8212266
911,1778415523.1934688,1.8237649,-1.0123762,0.18305947,-0.5299256,0.1910481,-6.8212266
912,1778415523.2036273,1.5891781,-0.97084934,0.1340932,-0.30940324,0.21273382,-6.734026
913,1778415523.2138944,1.3216624,-0.9897529,0.07293109,0.04444045,0.08659015,-6.699817
914,1778415523.2240138,0.588327,-1.2906241,-0.03969744,1.1059716,-0.4173737,-6.8800225
915,1778415523.2342446,0.17055872,-1.6267412,-0.10372557,1.6114625,-0.70356405,-7.111846
916,1778415523.244355,-0.53149444,-2.1102452,-0.13177599,1.7608191,-1.0192287,-7.1616316
917,1778415523.2544768,-1.0307918,-2.8583376,0.21946402,1.5357152,-1.3170254,-6.5687866
918,1778415523.2646377,-1.8980986,-3.642164,0.83840257,0.28130344,-0.2012801,-5.4044776
919,1778415523.274781,-2.6244214,-3.7630856,0.52375007,-0.93477654,1.0923798,-4.645172
920,1778415523.284884,-3.0669472,-4.1525593,0.32636052,-2.160325,1.6482671,-3.2971451
921,1778415523.2949803,-3.5031922,-4.2167096,0.25397822,-2.3435845,1.7208074,-2.1340578
922,1778415523.3051038,-3.665336,-4.2447596,0.29172435,-1.6698002,1.4414892,-0.58246
923,1778415523.3152337,-3.5511827,-4.12207,0.2686742,-0.56001073,1.1562152,1.1569787
924,1778415523.3253372,-3.263666,-3.8124175,0.22141537,0.3182608,1.0734429,2.7838657
925,1778415523.335475,-2.804127,-3.4728243,0.08000467,0.7637343,1.2524265,4.1683917
926,1778415523.3457265,-2.370321,-3.2536654,-0.099518,0.95417154,1.4217888,5.166393
927,1778415523.3558438,-1.7558951,-3.0293841,-0.31184745,1.0775663,1.4865406,6.306878
928,1778415523.3659604,-1.1303098,-2.810286,-0.43276918,1.1632402,1.4092661,7.278612
929,1778415523.3762236,-0.5178351,-2.62558,-0.4522215,1.3025174,1.3773484,8.132449
930,1778415523.3863406,0.013293459,-2.5091708,-0.52734786,1.4888313,1.3608551,8.8157015
931,1778415523.3964667,0.5317993,-2.3751996,-0.6021083,1.7017179,1.3190107,9.511019
932,1778415523.4065697,1.1953137,-2.1688461,-0.73717713,1.9055941,1.2227995,10.304075
933,1778415523.416689,1.8955374,-1.9629195,-0.8514522,1.9714148,1.0140363,10.9479265
934,1778415523.4268372,2.584663,-1.7144293,-0.86767256,1.8067867,0.7834347,11.360414
935,1778415523.4369895,3.0720084,-1.4894772,-0.78772885,1.4228579,0.64568454,11.493735
936,1778415523.447096,3.52984,-1.2598907,-0.5899125,0.9260717,0.6918049,11.403327
937,1778415523.4573958,3.769915,-1.0500003,-0.34691048,0.15118915,0.90209526,11.068878
938,1778415523.4675276,3.7850378,-0.8890763,-0.05366167,-0.5549711,1.218218,10.621114
939,1778415523.4776504,3.6780803,-0.80742514,0.05573496,-0.93431836,1.4686728,10.268034
940,1778415523.4878118,3.4844105,-0.7238837,0.072992064,-1.0920744,1.4680619,9.774149
941,1778415523.4979267,3.3344018,-0.6998579,0.083602436,-0.9798279,1.2647965,9.352958
942,1778415523.5080614,3.1685996,-0.71339524,0.08335852,-0.6719518,0.95417154,8.905346
943,1778415523.5181968,2.9841375,-0.7217494,-0.05213719,-0.39354995,0.50625455,8.504161
944,1778415523.5283494,2.8523617,-0.7813261,-0.14317909,-0.3036,-0.04428773,8.228508
945,1778415523.5384755,2.7769914,-0.8104131,-0.10433535,-0.41462478,-0.5839872,8.1162615
946,1778415523.5486956,2.7382085,-0.7950464,0.02414775,-0.6273586,-0.819323,8.093507
947,1778415523.5588272,2.6438127,-0.72345686,0.19629194,-0.9462303,-0.76923203,8.073501
948,1778415523.5690675,2.5335624,-0.6457694,0.242941,-1.2617421,-0.4709771,8.009818
949,1778415523.5791976,2.4400206,-0.57844836,0.22440335,-1.4845552,-0.22128594,7.9023056
950,1778415523.5894651,2.3320873,-0.48350382,0.13909347,-1.7354681,-0.049938235,7.7019415
951,1778415523.5996335,2.2583025,-0.4510629,0.012195834,-1.8509218,-0.1638646,7.5011196
952,1778415523.609739,2.26001,-0.42453694,-0.13244675,-1.7403551,-0.73624533,7.3768086
953,1778415523.6198845,2.3167815,-0.24751444,-0.07774844,-1.4069754,-1.5871806,7.3710055
954,1778415523.6300762,2.4053843,0.02262327,0.25153908,-1.1724031,-2.0141754,7.294647
955,1778415523.6402795,2.4405084,0.304469,0.5858269,-1.2878567,-1.6771306,7.189731
956,1778415523.6504781,2.4791691,0.5095419,0.79894906,-1.625207,-1.0106765,7.162395
957,1778415523.6606588,2.5998468,0.7941927,0.8391343,-2.1079433,-0.0143553335,7.0671
958,1778415523.670886,2.748209,0.9909115,0.79169255,-2.3258693,0.5887214,6.8768153
959,1778415523.68118,2.9232802,1.2289742,0.71711504,-2.2849414,0.98883814,6.6152124
960,1778415523.691322,3.1595135,1.5438706,0.56302065,-1.8550451,1.0453432,6.1349196
961,1778415523.701461,3.5349014,2.1140869,0.45167267,-1.2029464,0.7087564,5.426774
962,1778415523.7115984,3.8185763,2.450631,0.40868238,-0.6097962,0.34208453,4.4316745
963,1778415523.721722,4.555937,2.497036,0.28355312,0.27672195,-0.65240407,2.187203
964,1778415523.731952,4.8847365,2.376602,0.3895959,0.43997568,-0.9767735,1.4717271
965,1778415523.742058,5.282869,2.2384233,0.6876011,0.42271876,-0.88163126,0.7806858
966,1778415523.7521849,5.523188,2.2309837,0.9712762,0.27275133,0.029626964,0.1779145
967,1778415523.7624373,5.523188,2.2309837,0.9712762,0.27275133,0.029626964,0.1779145
968,1778415523.772543,5.5474577,2.0665839,0.65503824,0.063224554,2.5763242,-1.4057536
969,1778415523.782642,5.5474577,2.0665839,0.65503824,0.13805555,3.0363057,-2.5682302
970,1778415523.7929168,5.4756246,1.8123009,0.18885247,0.13805555,3.0363057,-2.5682302
971,1778415523.8030314,4.99706,1.051037,-0.21531744,0.76083267,1.9950858,-4.588667
972,1778415523.8131616,4.99706,1.051037,-0.21531744,0.76083267,1.9950858,-4.588667
973,1778415523.8233287,4.6434417,0.8090106,0.008841979,1.1128438,1.3946054,-5.305212
974,1778415523.8334525,4.060298,0.5464343,0.34532502,1.1449142,1.7560849,-5.946162
975,1778415523.8435702,3.7807693,0.4564291,0.33227548,1.0193814,2.2102633,-6.027407
976,1778415523.8536818,3.5459387,0.44575772,0.2695279,0.8541423,2.7731755,-6.1533985
977,1778415523.86388,3.243543,0.46380752,0.12945877,0.79458296,3.0870075,-6.3444467
978,1778415523.8740134,2.991028,0.42612243,-0.036221627,0.8400924,3.1722233,-6.692334
979,1778415523.8841376,2.991028,0.42612243,-0.036221627,1.0326678,2.9093986,-7.174307
980,1778415523.8942497,2.5560029,0.3322145,-0.13762999,1.2353222,2.6488645,-7.5131845
981,1778415523.904434,2.5560029,0.3322145,-0.13762999,1.2353222,2.6488645,-7.5131845
982,1778415523.9145534,2.2793403,0.1516552,-0.12043386,1.804954,1.9905044,-8.266229
983,1778415523.9247055,2.0123127,-0.27952853,-0.11872645,2.7902796,0.6363689,-9.38289
984,1778415523.9348283,1.9021841,-0.4698445,-0.038904708,3.1024318,0.072540246,-9.748951
985,1778415523.945115,1.8716946,-0.7271156,0.010427438,3.3528867,-0.5138904,-10.082789
986,1778415523.955375,1.8432784,-0.9731055,0.076711796,3.2911892,-0.94897914,-10.167241
987,1778415523.9655209,1.8133374,-1.082746,0.08189502,3.0564642,-1.1731668,-10.09913
988,1778415523.975651,1.8158376,-1.1598238,0.03469715,2.5575402,-1.4935656,-9.8228655
989,1778415523.9857686,1.8222406,-1.1525062,0.045795355,2.162463,-1.6891952,-9.55378
990,1778415523.995965,1.829863,-1.0886002,0.07555319,1.8422168,-1.7863227,-9.363495
991,1778415524.006067,1.8303508,-1.030487,0.14671588,1.2800682,-1.777007,-9.051954
992,1778415524.016198,1.8303508,-1.030487,0.14671588,1.2800682,-1.777007,-9.051954
993,1778415524.0263345,1.8499249,-0.9348107,0.20684133,0.0143553335,-1.2176071,-8.2246895
994,1778415524.036463,1.8488274,-0.86992884,0.248795,-0.49571714,-0.86132,-7.8728313
995,1778415524.0465794,1.8888298,-0.8056568,0.23562351,-0.8333729,-0.5349652,-7.6303177
996,1778415524.0567129,1.8940128,-0.7263228,0.16750978,-1.1157454,-0.25595254,-7.3983417
997,1778415524.066862,1.9185876,-0.7040655,0.112750486,-1.2302825,-0.19135354,-7.239211
998,1778415524.076986,1.9762738,-0.7088828,0.14763056,-1.2751812,-0.20066923,-6.99288
999,1778415524.0871003,1.9913967,-0.6829057,0.22574489,-1.2441798,-0.08246681,-6.748381
