id,timestamp,acc_x,acc_y,acc_z,gyro_x,gyro_y,gyro_z
0,1778415893.1538682,0.6949186,0.58790016,0.38398582,0.73639804,-0.25900686,0.29749137
1,1778415893.163953,0.6949186,0.58790016,0.38398582,0.73639804,-0.25900686,0.29749137
2,1778415893.17404,0.70784616,0.5105786,0.46758825,0.4886922,-0.08155051,0.1656972
3,1778415893.1841176,0.7299816,0.59973013,0.46941763,0.35918877,0.11942416,0.21135938
4,1778415893.1941965,0.714249,0.6463182,0.33642206,0.4625777,-0.05375614,0.09254608
5,1778415893.2042909,0.7447386,0.60351086,0.40319425,0.44012842,-0.30207285,0.04718934
6,1778415893.214366,0.72729856,0.58503413,0.43496442,0.3297145,-0.33643404,-0.058184914
7,1778415893.2244434,0.7238837,0.5339336,0.4552705,0.3297145,-0.33643404,-0.058184914
8,1778415893.2345178,0.71351725,0.4106337,0.47746688,0.075594574,-0.20845777,-0.06047566
9,1778415893.2446067,0.71351725,0.4106337,0.47746688,0.075594574,-0.20845777,-0.06047566
10,1778415893.2546802,0.7249813,0.36233822,0.45533144,0.23930646,-0.0018325958,0.17928895
11,1778415893.264756,0.7249813,0.36233822,0.45533144,0.23930646,-0.0018325958,0.17928895
12,1778415893.2748272,0.76699597,0.38715672,0.45600224,0.48579058,0.14401148,0.23579398
13,1778415893.2849042,0.76699597,0.38715672,0.45600224,0.48579058,0.14401148,0.23579398
14,1778415893.2949815,0.8093155,0.40904826,0.4367328,0.5186246,0.31749722,0.26511553
15,1778415893.305053,0.85401326,0.46319774,0.47905236,0.45265114,0.46868637,0.24510968
16,1778415893.315124,0.8764536,0.46850294,0.47405204,0.3819435,0.66798115,0.22159137
17,1778415893.3251965,0.9065163,0.46356362,0.45209953,0.3306308,0.81306165,0.21746802
18,1778415893.3352678,0.90541863,0.46405149,0.42874455,0.3107777,0.9265299,0.23625213
19,1778415893.3453426,0.90541863,0.46405149,0.42874455,0.3107777,0.9265299,0.23625213
20,1778415893.3554125,0.92926157,0.49710217,0.40947512,0.31978795,1.0325149,0.22036964
21,1778415893.3654468,0.9531044,0.51692045,0.5693015,0.28008172,1.2052372,0.1525636
22,1778415893.375524,0.9531044,0.51692045,0.5693015,0.28008172,1.2052372,0.1525636
23,1778415893.3855963,0.9088945,0.45850238,0.35672814,0.16920967,1.5833627,0.12232576
24,1778415893.395679,0.8608429,0.4563681,0.21440275,-0.13209961,1.6055065,0.29917124
25,1778415893.405786,0.9824354,0.3352025,0.12421457,-0.15134187,1.2366967,0.41996986
26,1778415893.4158669,0.9824354,0.3352025,0.12421457,-0.08506299,0.98899084,0.5155703
27,1778415893.4259448,0.8252311,0.49374834,0.3728876,0.04841107,0.84711736,0.36957347
28,1778415893.4361105,0.854623,0.49100426,0.49246776,0.18829921,0.7848091,0.30940324
29,1778415893.4462085,0.854623,0.49100426,0.49246776,0.18829921,0.7848091,0.30940324
30,1778415893.4562953,0.854623,0.49100426,0.49246776,0.18829921,0.7848091,0.30940324
31,1778415893.4663773,0.854623,0.49100426,0.49246776,0.18829921,0.7848091,0.30940324
32,1778415893.4764493,0.8762097,0.64589137,0.45594123,0.47907108,1.0618365,0.24449882
33,1778415893.486521,0.8749901,0.6940649,0.38660794,0.44715336,0.9992228,0.11499538
34,1778415893.496587,0.82852393,0.6735759,0.36502132,0.46135598,0.73746705,-0.1253801
35,1778415893.506661,0.82888985,0.60308397,0.4549046,0.48823404,0.5539021,-0.24694228
36,1778415893.516731,0.82937765,0.5274088,0.66894144,0.3481932,0.6065892,-0.2087632
37,1778415893.526801,0.7773624,0.57302123,0.76906925,0.20372356,0.9221011,-0.15668693
38,1778415893.5368707,0.7711426,0.5996691,0.6910769,0.09117164,1.3376422,-0.1366811
39,1778415893.546951,0.7707157,0.5968641,0.51698136,0.09330966,1.4147639,-0.20631973
40,1778415893.5570285,0.7707157,0.5968641,0.51698136,0.09330966,1.4147639,-0.20631973
41,1778415893.567104,0.6861986,0.6832715,0.27696738,0.49327368,0.73838335,-0.5795584
42,1778415893.5771935,0.6861986,0.6832715,0.27696738,0.49327368,0.73838335,-0.5795584
43,1778415893.5872827,0.6697342,0.61674327,0.40240154,0.7466301,-0.22556199,-0.6348417
44,1778415893.5973659,0.70924866,0.5600937,0.6127797,0.61193424,-0.29000828,-0.61162883
45,1778415893.6074576,0.7108951,0.54667825,0.74321413,0.43676865,0.037873644,-0.6044512
46,1778415893.6175473,0.6521722,0.5371045,0.7945585,0.311694,0.43661594,-0.60139686
47,1778415893.627649,0.5491174,0.56417924,0.6541845,0.18341228,0.8437576,-0.57635134
48,1778415893.637744,0.52448183,0.5819852,0.5146032,0.204029,0.86651236,-0.46761733
49,1778415893.6478353,0.53039676,0.5599107,0.44612357,0.25381452,0.6733262,-0.3472769
50,1778415893.6579192,0.5361288,0.5388729,0.42624438,0.25335637,0.5551238,-0.32788193
51,1778415893.6680055,0.5361288,0.5388729,0.42624438,0.19150625,0.4034765,-0.35063666
52,1778415893.6781113,0.62826836,0.6255853,0.6671731,0.107665,0.45097128,-0.39019018
53,1778415893.6882057,0.62826836,0.6255853,0.6671731,0.107665,0.45097128,-0.39019018
54,1778415893.6982882,0.55417866,0.60808426,0.6709538,0.105374254,1.1010846,-0.52015173
55,1778415893.7083766,0.4911872,0.60790133,0.5578374,0.17852537,1.1910346,-0.5305365
56,1778415893.7184942,0.42819571,0.5882661,0.45606318,0.2556471,1.0821478,-0.52412236
57,1778415893.728593,0.4191708,0.5643012,0.4177683,0.3735441,0.86315256,-0.4888449
58,1778415893.7387364,0.43222034,0.5574716,0.40758476,0.4625777,0.6275113,-0.42653665
59,1778415893.7488296,0.4314886,0.57655805,0.4444162,0.47708577,0.45631635,-0.33383787
60,1778415893.7589176,0.4443552,0.5892417,0.4744789,0.4531093,0.39370266,-0.2677117
61,1778415893.7689984,0.44935548,0.59222966,0.4997243,0.4531093,0.39370266,-0.2677117
62,1778415893.7790809,0.44917256,0.6771127,0.5225305,0.3202461,0.45478916,-0.129198
63,1778415893.789169,0.43325698,0.7443727,0.5173473,0.29138273,0.52610767,-0.1459968
64,1778415893.7992668,0.41764635,0.7589467,0.5066149,0.3061962,0.5525276,-0.25977045
65,1778415893.809377,0.40764573,0.71943223,0.48350382,0.3904956,0.54351735,-0.3145956
66,1778415893.8194726,0.40880433,0.6964431,0.43941587,0.49586987,0.5140431,-0.3034473
67,1778415893.8295515,0.39337662,0.7011995,0.37813184,0.59650993,0.43264532,-0.2666427
68,1778415893.8396432,0.374717,0.7114439,0.3460568,0.61300325,0.30115658,-0.23396139
69,1778415893.8497295,0.3720339,0.71717596,0.30367625,0.5882632,0.1601994,-0.20570888
70,1778415893.8598416,0.3784977,0.749373,0.30544463,0.5172501,-0.02031127,-0.1685988
71,1778415893.869926,0.39240095,0.7957171,0.33819047,0.4802928,-0.105832405,-0.17073683
72,1778415893.8800142,0.41929275,0.8373049,0.4297812,0.3933972,-0.09086621,-0.2591596
73,1778415893.8901482,0.4113045,0.8359634,0.48234522,0.29000828,0.04841107,-0.36071593
74,1778415893.9002302,0.38654694,0.77364266,0.524116,0.19837849,0.23701571,-0.42317688
75,1778415893.910308,0.36989963,0.7219933,0.5283845,0.18478674,0.40225476,-0.42271876
76,1778415893.9203904,0.35849655,0.6940039,0.4133168,0.22876903,0.5673411,-0.3678936
77,1778415893.9304779,0.365875,0.6951625,0.25568563,0.279929,0.4392121,-0.2744312
78,1778415893.9405894,0.37136313,0.72668874,0.17421748,0.3474296,0.06734789,-0.21930063
79,1778415893.950678,0.41648772,0.82462126,0.18080322,0.45982882,-0.32635477,-0.267559
80,1778415893.9608347,0.42618343,0.8627943,0.25397822,0.54565537,-0.5705481,-0.39477167
81,1778415893.9709513,0.42063433,0.86389184,0.3055666,0.5934556,-0.70829827,-0.50686544
82,1778415893.9810534,0.42648828,0.7904729,0.42856157,0.6783658,-0.84391034,-0.6730208
83,1778415893.9912636,0.4072189,0.705529,0.5857659,0.66737026,-0.65209866,-0.67271537
84,1778415894.0013914,0.37508285,0.65979457,0.61387724,0.5242751,-0.25809056,-0.5348125
85,1778415894.011518,0.36739948,0.6401593,0.55326396,0.33001995,0.061391957,-0.37583485
86,1778415894.0216823,0.333678,0.69943106,0.42362225,0.05665775,0.28970283,-0.18066339
87,1778415894.0319695,0.316116,0.7484583,0.31196943,-0.13500121,0.28725937,-0.06612616
88,1778415894.0420828,0.29745638,0.7834603,0.2719671,-0.18371773,0.18982637,-0.026572637
89,1778415894.052211,0.27641857,0.8229139,0.24117261,-0.0842994,-0.026725354,-0.023060163
90,1778415894.0623257,0.26129574,0.8842589,0.21458568,0.03772093,-0.22036964,-0.0759
91,1778415894.0726292,0.2490999,0.9071871,0.21062206,0.11636983,-0.36193767,-0.14294247
92,1778415894.082858,0.23281845,0.90566254,0.17562,0.2396119,-0.66538495,-0.24984388
93,1778415894.0931373,0.18988912,0.8964548,0.16464376,0.32543847,-0.8949176,-0.2742785
94,1778415894.1032917,0.1484233,0.86578226,0.17714448,0.36041048,-1.0277808,-0.21120666
95,1778415894.1134417,0.12348281,0.85700125,0.16031423,0.33444872,-1.108415,-0.0936151
96,1778415894.1237369,0.077809416,0.87901473,0.17690057,0.22678372,-1.1644619,0.087201014
97,1778415894.133984,0.063418336,0.9136509,0.20879267,0.08200866,-1.1684325,0.2843578
98,1778415894.144115,0.0471369,0.9620073,0.24653877,-0.026419923,-1.065349,0.43249258
99,1778415894.1542187,-0.011768979,1.0664647,0.30257863,-0.33948836,-0.60994893,0.6430884
100,1778415894.1643326,-0.011768979,1.0664647,0.30257863,-0.33948836,-0.60994893,0.6430884
101,1778415894.1744466,-0.0005488125,1.0942101,0.28971204,-0.46563202,-0.49953505,0.6910413
102,1778415894.1845913,0.015549688,1.170678,0.2658082,-0.66599584,-0.4007276,0.7322747
103,1778415894.194702,0.015549688,1.170678,0.2658082,-0.66599584,-0.4007276,0.7322747
104,1778415894.2048295,0.015549688,1.170678,0.2658082,-0.66599584,-0.4007276,0.7322747
105,1778415894.215014,0.08323657,1.2973927,0.29202923,-0.0071776668,-1.2391402,0.3941608
106,1778415894.2251172,0.12976366,1.2540975,0.3514839,0.513585,-1.4445436,0.30543262
107,1778415894.2352505,0.17147341,1.205985,0.42362225,0.8576548,-1.4813483,0.2846632
108,1778415894.2453866,0.18940128,1.1987895,0.48923588,1.1239921,-1.3695599,0.2883284
109,1778415894.255498,0.22080556,1.2027531,0.5294821,1.193478,-1.0913107,0.2733622
110,1778415894.2656035,0.22812307,1.2241569,0.5283235,1.125672,-0.77014834,0.22067507
111,1778415894.275726,0.22812307,1.2241569,0.5283235,1.125672,-0.77014834,0.22067507
112,1778415894.2858596,0.2361723,1.2167783,0.48167443,0.982424,-0.43157628,0.12965615
113,1778415894.295979,0.22300081,1.1012838,0.2639788,0.44104472,0.3129157,-0.09758572
114,1778415894.306081,0.20092636,1.0295113,0.17452239,0.30650163,0.39690968,-0.13775012
115,1778415894.316198,0.1823277,0.9504213,0.10354263,0.23747386,0.42149702,-0.14065172
116,1778415894.3263063,0.16586334,0.8942595,0.050917607,0.24083363,0.3213151,-0.099265605
117,1778415894.3364103,0.16470474,0.8698678,0.032623854,0.26725355,0.14385876,-0.027488936
118,1778415894.3465242,0.16092403,0.8845028,0.040795065,0.29352075,-0.011759156,0.023365596
119,1778415894.3566668,0.17714448,0.88992995,0.06841862,0.3378085,-0.19410244,0.075289145
120,1778415894.3667746,0.19586508,0.89047885,0.113116354,0.38148534,-0.31978795,0.14431691
121,1778415894.3769162,0.2125734,0.89145446,0.13006857,0.39263365,-0.36209038,0.19318613
122,1778415894.387218,0.2125734,0.89145446,0.13006857,0.39263365,-0.36209038,0.19318613
123,1778415894.3975828,0.2125734,0.89145446,0.13006857,0.39263365,-0.36209038,0.19318613
124,1778415894.4077153,0.2125734,0.89145446,0.13006857,0.39263365,-0.36209038,0.19318613
125,1778415894.4178152,0.21367101,0.99298483,0.19610901,0.45234573,-0.29367346,0.30634892
126,1778415894.428076,0.21367101,0.99298483,0.19610901,0.45234573,-0.29367346,0.30634892
127,1778415894.4381924,0.2250741,0.9504823,0.15738723,0.35353827,-0.17486018,0.301462
128,1778415894.4483225,0.22873287,0.939689,0.12342183,0.36819902,-0.23884831,0.34406984
129,1778415894.4584365,0.2608079,0.9386523,0.102384016,0.4335616,-0.3381139,0.38728857
130,1778415894.4687192,0.2798334,0.9474333,0.11049425,0.46975538,-0.4251622,0.4185954
131,1778415894.478842,0.27794304,0.97036153,0.105493955,0.4886922,-0.5216789,0.42928556
132,1778415894.4890707,0.27794304,0.97036153,0.105493955,0.4886922,-0.5216789,0.42928556
133,1778415894.4994025,0.27794304,0.97036153,0.105493955,0.4886922,-0.5216789,0.42928556
134,1778415894.5096514,0.27794304,0.97036153,0.105493955,0.4886922,-0.5216789,0.42928556
135,1778415894.5197449,0.41807315,0.96688575,0.15171617,0.4560109,-0.8568912,0.39003745
136,1778415894.529853,0.4346595,0.957129,0.16000934,0.45814893,-0.8677341,0.37033707
137,1778415894.5399733,0.44709927,0.87944156,0.058722936,0.4908302,-0.9848675,0.4250095
138,1778415894.5500944,0.36221626,0.95340925,0.1972676,0.54061574,-0.9381363,0.40500367
139,1778415894.5602157,0.39423034,0.82760924,0.21050009,0.50518554,-0.7968737,0.42745295
140,1778415894.5703268,0.42130506,0.80510795,0.17988855,0.45906523,-0.6976081,0.48075095
141,1778415894.5804956,0.46850294,0.7846189,0.17305888,0.3324634,-0.58352906,0.6204864
142,1778415894.5906491,0.5403974,0.79827833,0.22086655,0.12782355,-0.5015204,0.7180721
143,1778415894.6007743,0.5403974,0.79827833,0.22086655,0.12782355,-0.5015204,0.7180721
144,1778415894.610913,0.5403974,0.79827833,0.22086655,0.12782355,-0.5015204,0.7180721
145,1778415894.6213396,0.5403974,0.79827833,0.22086655,-0.12904528,-0.24327709,0.7246389
146,1778415894.6315503,0.5417389,0.8110839,0.28062615,-0.03283401,0.04444045,0.7156286
147,1778415894.641654,0.52405494,0.7676667,0.27221102,0.04886922,0.21655174,0.7835874
148,1778415894.6519735,0.54661727,0.72467643,0.2280621,0.08017606,0.36468655,0.9069822
149,1778415894.662095,0.6010107,0.7538245,0.18196183,0.013286319,0.40485093,0.98975444
150,1778415894.6723332,0.6272927,0.796144,0.15635058,-0.15989397,0.29978213,0.9680687
151,1778415894.6824715,0.6346102,0.8204747,0.14592315,-0.279929,0.18219055,0.9078985
152,1778415894.6926415,0.6560749,0.80779105,0.14836231,-0.40378192,-0.03313944,0.7840455
153,1778415894.7027745,0.6560749,0.80779105,0.14836231,-0.40378192,-0.03313944,0.7840455
154,1778415894.7130742,0.6560749,0.80779105,0.14836231,-0.40378192,-0.03313944,0.7840455
155,1778415894.7232327,0.6560749,0.80779105,0.14836231,-0.40378192,-0.03313944,0.7840455
156,1778415894.733499,0.65528214,0.6590018,0.3316657,-0.3119994,-0.21090123,0.7290677
157,1778415894.74361,0.64772075,0.68522286,0.27611366,-0.23777929,0.5510005,1.1478158
158,1778415894.753703,0.6694293,0.7499218,0.20653644,-0.44974953,0.643852,1.134224
159,1778415894.7641494,0.6694293,0.7499218,0.20653644,-0.44974953,0.643852,1.134224
160,1778415894.7743118,0.67229533,0.7662642,0.10329871,-0.79549927,0.5853616,1.0445796
161,1778415894.784475,0.6934551,0.75205606,0.05713748,-1.0097603,0.39477167,0.9558514
162,1778415894.7946174,0.72168845,0.72376174,0.058174126,-1.048703,0.099571034,0.872621
163,1778415894.8047454,0.72168845,0.72376174,0.058174126,-1.048703,0.099571034,0.872621
164,1778415894.814916,0.72168845,0.72376174,0.058174126,-1.048703,0.099571034,0.872621
165,1778415894.8250675,0.72168845,0.72376174,0.058174126,-1.048703,0.099571034,0.872621
166,1778415894.8352172,0.74479955,0.5895466,0.24275808,0.39843684,-0.85154617,0.701426
167,1778415894.8453255,0.73370135,0.5866806,0.2666619,0.2958115,-0.8390234,0.7415904
168,1778415894.8554502,0.7651056,0.6008277,0.29221216,0.03023783,-0.70356405,0.7958047
169,1778415894.8655503,0.7488242,0.6017424,0.2558076,-0.31581733,-0.56306505,0.8019133
170,1778415894.8756807,0.7686424,0.66113615,0.20330454,-0.519999,-0.54504454,0.7415904
171,1778415894.8857872,0.7686424,0.66113615,0.20330454,-0.54092115,-0.68493265,0.6792821
172,1778415894.8959217,0.7936439,0.5991203,0.1612899,-0.54092115,-0.68493265,0.6792821
173,1778415894.9060476,0.7936439,0.5991203,0.1612899,-0.34147367,-0.7884743,0.66355234
174,1778415894.9161782,0.7936439,0.5991203,0.1612899,-0.34147367,-0.7884743,0.66355234
175,1778415894.9262981,0.7936439,0.5991203,0.1612899,-0.34147367,-0.7884743,0.66355234
176,1778415894.93653,0.7916316,0.5200303,0.09610317,0.5572618,-1.1334605,0.72387534
177,1778415894.9466312,0.8326705,0.52588433,0.110006414,0.43295074,-1.1641564,0.6907359
178,1778415894.9567616,0.8629162,0.52582335,0.11281146,0.2275473,-1.1485794,0.6462954
179,1778415894.9668832,0.86724573,0.51411533,0.11043327,0.05757405,-1.1368202,0.61376685
180,1778415894.9770527,0.863709,0.4897237,0.096469045,-0.20234911,-1.1137601,0.5723807
181,1778415894.9871724,0.8392563,0.49216285,0.081956,-0.25228736,-1.1326969,0.56306505
182,1778415894.9973204,0.8240115,0.485821,0.057747275,-0.14340061,-1.1731668,0.56688297
183,1778415895.0074813,0.8240115,0.485821,0.057747275,-0.14340061,-1.1731668,0.56688297
184,1778415895.0177255,0.8240115,0.485821,0.057747275,-0.14340061,-1.1731668,0.56688297
185,1778415895.0278602,0.8240115,0.485821,0.057747275,-0.14340061,-1.1731668,0.56688297
186,1778415895.0379715,0.8215113,0.43661085,0.06829667,0.08857546,-0.68951416,0.6618725
187,1778415895.048092,0.8265117,0.41356072,0.010000584,0.0027488936,-0.7119634,0.7104363
188,1778415895.0581982,0.8210235,0.41545108,-0.009939604,-0.03863723,-0.75869465,0.7254025
189,1778415895.0687053,0.8210235,0.41545108,-0.009939604,-0.03863723,-0.75869465,0.7254025
190,1778415895.0788372,0.8346219,0.4159389,-0.024086772,0.054061573,-0.88712907,0.7267769
191,1778415895.0890596,0.8465128,0.43008605,0.0059759584,0.19349156,-0.86132,0.7144069
192,1778415895.0991886,0.87974644,0.42965922,0.029148044,0.29733866,-0.73761976,0.70738196
193,1778415895.1093102,0.87974644,0.42965922,0.029148044,0.28725937,-0.5578727,0.68707067
194,1778415895.1196902,0.87974644,0.42965922,0.029148044,0.28725937,-0.5578727,0.68707067
195,1778415895.129816,0.87974644,0.42965922,0.029148044,0.28725937,-0.5578727,0.68707067
196,1778415895.13997,0.91962683,0.37630245,-0.055308107,-0.09911288,-0.54260105,0.61743206
197,1778415895.150089,0.93907917,0.36654577,-0.06213777,-0.13713925,-0.6026186,0.61407226
198,1778415895.1603694,0.933713,0.3972183,-0.07152857,-0.058337633,-0.62125,0.6230826
199,1778415895.1704721,0.9332252,0.41819513,-0.08183405,0.059253927,-0.64965516,0.61819565
200,1778415895.1806002,0.95133597,0.4133168,-0.069760166,0.14630222,-0.65240407,0.59528816
201,1778415895.1907105,0.9700566,0.40606028,-0.031831127,0.16600263,-0.5874997,0.5890268
202,1778415895.2008276,0.98036206,0.40416992,-0.012378771,0.10140363,-0.45570546,0.59483004
203,1778415895.2109423,0.98030114,0.39825493,-0.022562291,-0.04886922,-0.38240165,0.5707009
204,1778415895.221081,0.9867649,0.392279,-0.08335852,-0.18066339,-0.41554108,0.5169447
205,1778415895.2312534,1.0020707,0.37514386,-0.13000758,-0.23396139,-0.52503866,0.46593747
206,1778415895.2413917,1.0115834,0.34971553,-0.16153382,-0.24510968,-0.6962337,0.42424592
207,1778415895.2515168,1.0139616,0.33751968,-0.17068069,-0.22296582,-0.86162543,0.4014912
208,1778415895.2617667,1.0271331,0.31166452,-0.16574138,-0.1049161,-1.0902418,0.35124752
209,1778415895.2718904,1.0321333,0.29660267,-0.1340322,0.01160644,-1.2223413,0.31688634
210,1778415895.2820055,1.0394509,0.25544173,-0.020489,0.17165314,-1.2341005,0.3200934
211,1778415895.2921433,1.0460976,0.25013652,0.033538543,0.22250767,-1.1029172,0.36010507
212,1778415895.302262,1.0506101,0.25995418,0.05049075,0.18952094,-0.8349001,0.41599923
213,1778415895.312385,1.0596349,0.25739306,0.008110229,0.06414085,-0.5410739,0.4457789
214,1778415895.3225183,1.0660378,0.25336844,-0.06726002,-0.049938235,-0.37766743,0.4605924
215,1778415895.3327363,1.0631719,0.25903952,-0.14952092,-0.1525636,-0.29153544,0.4642576
216,1778415895.3428729,1.0576837,0.25800288,-0.17281497,-0.2302962,-0.2753475,0.44303003
217,1778415895.3530788,1.0634767,0.2511732,-0.17281497,-0.28878653,-0.2919936,0.4202753
218,1778415895.3632085,1.0635376,0.24050182,-0.16007032,-0.3549127,-0.302531,0.3707952
219,1778415895.3733578,1.0601228,0.21178065,-0.14628904,-0.4025602,-0.30940324,0.33826664
220,1778415895.3834722,1.0635986,0.18940128,-0.12866604,-0.42210788,-0.31780264,0.32498032
221,1778415895.393581,1.0681111,0.15677744,-0.099274084,-0.41829,-0.28160888,0.3359759
222,1778415895.4037826,1.068294,0.15049659,-0.063235395,-0.40286562,-0.18646662,0.36041048
223,1778415895.413895,1.0644523,0.15006974,-0.051039565,-0.3924809,-0.086437434,0.37033707
224,1778415895.4242246,1.0579885,0.15586275,-0.06811373,-0.35979962,0.09193522,0.38362336
225,1778415895.4344814,1.068538,0.17281497,-0.11689706,-0.3199407,0.105068825,0.35995236
226,1778415895.4446204,1.0693917,0.17860797,-0.13976426,-0.3199407,0.105068825,0.35995236
227,1778415895.45474,1.1096989,0.14250831,-0.15238695,-0.21227567,-0.054825157,0.29626966
228,1778415895.4648707,1.1096989,0.14250831,-0.15238695,-0.21227567,-0.054825157,0.29626966
229,1778415895.4750397,1.0481099,0.18312044,-0.11104306,-0.16142114,-0.09972375,0.311694
230,1778415895.4852278,1.0490856,0.20208496,-0.11067719,-0.0804815,-0.024129177,0.2350304
231,1778415895.4955413,1.0891489,0.19427963,-0.096651986,0.027183503,0.04153884,0.17165314
232,1778415895.5060308,1.065367,0.18995011,-0.076102,0.11560625,0.2967278,0.0071776668
233,1778415895.5161545,1.065367,0.18995011,-0.076102,0.11560625,0.2967278,0.0071776668
234,1778415895.5262692,1.065367,0.18995011,-0.076102,0.11560625,0.2967278,0.0071776668
235,1778415895.5365524,1.065367,0.18995011,-0.076102,0.11560625,0.2967278,0.0071776668
236,1778415895.546661,1.0826851,0.13610551,-0.18775485,0.17088956,0.3904956,-0.09972375
237,1778415895.5567832,1.1095159,0.143423,-0.18104716,0.21975878,0.26358834,-0.11133019
238,1778415895.5669909,1.1095159,0.143423,-0.18104716,0.21975878,0.26358834,-0.11133019
239,1778415895.5770862,1.0812217,0.12512925,-0.090371124,0.40439278,0.4831944,-0.10552697
240,1778415895.5871851,1.0339018,0.122202255,-0.09653002,0.5018258,0.65286225,-0.031612277
241,1778415895.597284,0.9477992,0.1674488,-0.17232713,0.5662721,0.72601336,0.063224554
242,1778415895.6073875,0.9439575,0.17994952,-0.25361237,0.58261275,0.5028948,0.12644911
243,1778415895.6175435,0.9837769,0.20617057,-0.28898028,0.6021604,0.27000242,0.15042557
244,1778415895.62765,0.9913383,0.26471058,-0.27672347,0.66706485,0.029626964,0.11026118
245,1778415895.6377578,1.0232304,0.27355254,-0.23117203,0.7449502,-0.17470746,0.014966198
246,1778415895.6478722,1.056769,0.25952733,-0.15580177,0.7860308,-0.25809056,-0.07742717
247,1778415895.6579845,1.1001252,0.21970794,-0.06085721,0.79244494,-0.24740042,-0.16432275
248,1778415895.6681788,1.123785,0.19251123,0.017988855,0.75533485,-0.09162979,-0.20891592
249,1778415895.6782806,1.1401275,0.14921603,0.067321,0.6638578,0.26710084,-0.23564127
250,1778415895.6884778,1.1401275,0.14921603,0.067321,0.6638578,0.26710084,-0.23564127
251,1778415895.6985977,1.1205531,0.14000817,0.056283772,0.54702985,0.61758476,-0.226631
252,1778415895.7087176,1.0460366,0.15385045,-0.11671413,0.03756821,1.1039863,-0.1498147
253,1778415895.7188482,1.0401826,0.15708233,-0.21056107,-0.15836681,0.95188075,-0.121256754
254,1778415895.729323,1.0401826,0.15708233,-0.21056107,-0.15836681,0.95188075,-0.121256754
255,1778415895.73965,1.0456707,0.1967188,-0.117933705,-0.19608775,0.49495357,-0.22922719
256,1778415895.7497587,1.0766482,0.17927876,-0.058113147,-0.047494773,0.3915646,-0.35323283
257,1778415895.7598839,1.0904295,0.14860623,-0.017562,0.1731803,0.37950003,-0.47647488
258,1778415895.7699983,1.0871977,0.14336202,0.015061854,0.3231477,0.4063781,-0.5343544
259,1778415895.780119,1.0584763,0.1629973,0.09677394,0.5360342,0.5849035,-0.58016926
260,1778415895.7902367,1.0546347,0.16696097,0.11281146,0.6198755,0.84497935,-0.6027713
261,1778415895.8003604,1.0730504,0.14933798,0.09579827,0.5006041,1.0458013,-0.63300914
262,1778415895.810472,1.1234192,0.11903133,0.05689356,0.25259277,1.1774428,-0.6414085
263,1778415895.8206844,1.1589091,0.10677453,0.040795065,0.016340645,1.251052,-0.65484756
264,1778415895.8307798,1.1589091,0.10677453,0.040795065,0.016340645,1.251052,-0.65484756
265,1778415895.840923,1.1589091,0.10677453,0.040795065,0.016340645,1.251052,-0.65484756
266,1778415895.8511043,1.1589091,0.10677453,0.040795065,0.016340645,1.251052,-0.65484756
267,1778415895.8612993,0.936701,0.21098791,-0.083053626,0.22617286,1.0641272,-0.6791294
268,1778415895.8714323,0.8884665,0.2125124,-0.08043153,0.40026945,0.79183406,-0.6934848
269,1778415895.8815465,0.8980402,0.22043969,-0.021159772,0.47235155,0.67088276,-0.6968445
270,1778415895.8916762,0.94816506,0.22007383,0.05256404,0.52412236,0.58368176,-0.6815729
271,1778415895.9018023,0.9368229,0.24501431,0.11128698,0.49296826,0.61162883,-0.65316767
272,1778415895.9120553,0.9596292,0.23281845,0.097200796,0.4027129,0.64599,-0.61300325
273,1778415895.9221888,0.9246272,0.27324766,0.09317617,0.33933565,0.70539665,-0.54993147
274,1778415895.9323137,0.9246272,0.27324766,0.09317617,0.33933565,0.70539665,-0.54993147
275,1778415895.9424977,0.9246272,0.27324766,0.09317617,0.33933565,0.70539665,-0.54993147
276,1778415895.9527822,0.9246272,0.27324766,0.09317617,0.33933565,0.70539665,-0.54993147
277,1778415895.9629135,0.793217,0.35819164,0.098054506,0.20189096,0.81229806,-0.40286562
278,1778415895.9730263,0.77108157,0.4306959,0.028111396,0.21029036,0.7470882,-0.37843102
279,1778415895.983246,0.8144378,0.44673342,0.016647313,0.27397305,0.66599584,-0.3866777
280,1778415895.9934435,0.86748964,0.4422819,0.0023781876,0.37782016,0.57009,-0.38774672
281,1778415896.0035648,0.8591965,0.47051528,-0.005061271,0.42088616,0.4625777,-0.3724751
282,1778415896.0138843,0.85401326,0.52222556,0.010732334,0.25259277,0.35613444,-0.397826
283,1778415896.0240035,0.7710206,0.60375476,0.03969744,0.15989397,0.33017266,-0.43493605
284,1778415896.0341108,0.7710206,0.60375476,0.03969744,0.15989397,0.33017266,-0.43493605
285,1778415896.0443342,0.7710206,0.60375476,0.03969744,0.15989397,0.33017266,-0.43493605
286,1778415896.05472,0.7710206,0.60375476,0.03969744,0.15989397,0.33017266,-0.43493605
287,1778415896.0649102,0.74705577,0.529726,0.058722936,0.043676864,0.107665,-0.40225476
288,1778415896.0750177,0.8227309,0.5185059,0.07799236,0.07544186,0.03390302,-0.3378085
289,1778415896.0852587,0.8227309,0.5185059,0.07799236,0.08155051,-0.0022907446,-0.31337386
290,1778415896.0954223,0.8755389,0.5760092,0.086712375,0.07269296,-0.056505036,-0.3231477
291,1778415896.1056025,0.8716972,0.6466231,0.076528855,0.049938235,-0.15057829,-0.47968194
292,1778415896.1157246,0.8440126,0.6311344,0.09524946,0.004428773,-0.1600467,-0.54168475
293,1778415896.1258383,0.819621,0.614548,0.09933506,-0.04886922,-0.123547494,-0.5459608
294,1778415896.136103,0.819621,0.614548,0.09933506,-0.04886922,-0.123547494,-0.5459608
295,1778415896.1463668,0.819621,0.614548,0.09933506,-0.04886922,-0.123547494,-0.5459608
296,1778415896.1564887,0.77059376,0.5925956,0.06073525,-0.16065755,0.082161374,-0.44791695
297,1778415896.1665936,0.77839905,0.6125358,0.05427146,-0.22204952,0.11988231,-0.42394048
298,1778415896.1767237,0.77839905,0.6125358,0.05427146,-0.29000828,0.13713925,-0.43188173
299,1778415896.1868365,0.7906559,0.6452206,0.04914921,-0.29000828,0.13713925,-0.43188173
300,1778415896.1969402,0.7993759,0.65784323,0.033965394,-0.38774672,0.10873401,-0.4810564
301,1778415896.2070498,0.78955823,0.6743686,0.01103723,-0.4259258,0.03772093,-0.50656
302,1778415896.2171898,0.79108274,0.6811983,0.021647604,-0.42210788,-0.12385293,-0.5166393
303,1778415896.2272956,0.77900887,0.67686874,0.045551438,-0.41126502,-0.16982053,-0.4934264
304,1778415896.2374408,0.77900887,0.67686874,0.045551438,-0.41126502,-0.16982053,-0.4934264
305,1778415896.2475696,0.77900887,0.67686874,0.045551438,-0.41126502,-0.16982053,-0.4934264
306,1778415896.25768,0.77900887,0.67686874,0.045551438,-0.41126502,-0.16982053,-0.4934264
307,1778415896.267904,0.7442508,0.6154627,0.045124583,-0.43066,0.014966198,-0.11499538
308,1778415896.2780273,0.7607761,0.61741406,0.03237994,-0.45921794,-0.024587326,-0.035124753
309,1778415896.2881627,0.7607761,0.61741406,0.03237994,-0.45921794,-0.024587326,-0.035124753
310,1778415896.2982795,0.7766307,0.6504038,-0.021403689,-0.32070425,-0.3136793,0.04260785
311,1778415896.3084345,0.77358174,0.63332963,-0.03439225,-0.1826487,-0.5459608,0.033444874
312,1778415896.3185506,0.7590077,0.63192713,-0.021159772,-0.04184427,-0.75900006,0.032986723
313,1778415896.3288138,0.7368113,0.6349151,0.00951275,0.017104227,-0.8304713,0.02733622
314,1778415896.338967,0.7530927,0.57704586,0.069638215,0.011301007,-0.8400924,0.06291912
315,1778415896.3491485,0.7483363,0.570765,0.09738373,-0.06612616,-0.73823065,0.14095716
316,1778415896.3594155,0.73193294,0.60491335,0.10842097,-0.13179417,-0.6197228,0.18325958
317,1778415896.3695478,0.69882125,0.63759816,0.105920814,-0.21792617,-0.44440445,0.19914207
318,1778415896.3796768,0.65692854,0.6721733,0.08933448,-0.2843578,-0.3801109,0.19257528
319,1778415896.3898082,0.5787533,0.70918775,0.042746395,-0.35124752,-0.35796702,0.16997325
320,1778415896.39991,0.5296041,0.7633372,0.036282603,-0.4089743,-0.4662429,0.15210545
321,1778415896.4100835,0.49484593,0.85261077,0.061162103,-0.45891252,-0.59620446,0.08384126
322,1778415896.4202135,0.47850356,0.91212636,0.08713923,-0.5030475,-0.70707655,-0.008857546
323,1778415896.4303606,0.46514907,0.9624342,0.12238518,-0.56596667,-0.73563445,-0.09636399
324,1778415896.4405942,0.45764863,0.9820085,0.16750978,-0.6927212,-0.68554354,-0.18799378
325,1778415896.4507396,0.45764863,0.9820085,0.16750978,-0.6927212,-0.68554354,-0.18799378
326,1778415896.4609609,0.45764863,0.9820085,0.16750978,-0.6927212,-0.68554354,-0.18799378
327,1778415896.4711826,0.42807376,0.99280185,0.19336495,-0.8883508,-0.35643986,-0.29932398
328,1778415896.4813876,0.42520773,0.9821305,0.20415826,-0.79229224,-0.28344148,-0.3100141
329,1778415896.4915233,0.42484185,0.98017913,0.22604977,-0.6826419,-0.2284636,-0.30115658
330,1778415896.501634,0.43124464,0.96804434,0.2426361,-0.56779927,-0.1470658,-0.26313022
331,1778415896.511926,0.4495994,0.95334834,0.22513509,-0.3755294,-0.025045475,-0.15592335
332,1778415896.5220444,0.4675273,0.95523864,0.19488941,-0.17180584,0.018478673,-0.061239243
333,1778415896.532158,0.50185853,0.95755583,0.14903308,0.019089539,-0.0030543262,-0.004428773
334,1778415896.5425587,0.54027545,0.96920294,0.12982465,0.2582433,-0.049021937,0.035888333
335,1778415896.5526798,0.54027545,0.96920294,0.12982465,0.2582433,-0.049021937,0.035888333
336,1778415896.5630453,0.54027545,0.96920294,0.12982465,0.2582433,-0.049021937,0.035888333
337,1778415896.5731733,0.66089225,0.94414043,0.086712375,0.5131268,-0.029932396,0.03940081
338,1778415896.5832894,0.67973477,0.916334,0.071772486,0.5180137,0.019547688,0.010079277
339,1778415896.5935287,0.69376,0.89194226,0.055795938,0.50946164,0.060628377,-0.014202617
340,1778415896.6036475,0.71107805,0.84315896,0.042380523,0.46838093,0.113926366,-0.030848695
341,1778415896.6137683,0.6930283,0.8334022,0.033294626,0.410196,0.13103059,-0.035124753
342,1778415896.6238902,0.6930283,0.8334022,0.033294626,0.39400807,0.10094548,-0.064446285
343,1778415896.6340394,0.6881499,0.7968757,0.055917896,0.46303585,-0.045356743,-0.106901415
344,1778415896.6441479,0.6881499,0.7968757,0.055917896,0.46303585,-0.045356743,-0.106901415
345,1778415896.6542487,0.6829667,0.7827895,0.08762706,0.5839872,-0.101556346,-0.115453534
346,1778415896.6644235,0.6829667,0.7827895,0.08762706,0.5839872,-0.101556346,-0.115453534
347,1778415896.6745417,0.6699781,0.8271825,0.10488417,0.68523806,0.0053450707,-0.112704635
348,1778415896.6846418,0.6699781,0.8271825,0.10488417,0.7098254,0.09437868,-0.13240504
349,1778415896.6947753,0.6690025,0.831085,0.09854234,0.7098254,0.09437868,-0.13240504
350,1778415896.7050326,0.664429,0.8242554,0.073845774,0.70295316,0.15714508,-0.1432479
351,1778415896.7152066,0.6630875,0.78559464,0.016647313,0.6400341,0.19135354,-0.13652839
352,1778415896.7253273,0.6630875,0.78559464,0.016647313,0.6400341,0.19135354,-0.13652839
353,1778415896.7354655,0.661563,0.75882477,0.016342416,0.70616025,0.012370021,-0.09941832
354,1778415896.7455776,0.65144044,0.7471777,0.04317325,0.70616025,0.012370021,-0.09941832
355,1778415896.7558696,0.65144044,0.7471777,0.04317325,0.70616025,0.012370021,-0.09941832
356,1778415896.7661555,0.65144044,0.7471777,0.04317325,0.70616025,0.012370021,-0.09941832
357,1778415896.7762675,0.65144044,0.7471777,0.04317325,0.8237518,-0.021991149,-0.07498371
358,1778415896.7863703,0.64778167,0.7163833,0.010305479,0.88514376,0.25992316,0.06429356
359,1778415896.7967503,0.6627216,0.73437214,-0.025855167,0.8164214,0.322995,0.0711658
360,1778415896.8068721,0.6635143,0.7474217,-0.07067485,0.7507534,0.31856623,0.05589417
361,1778415896.8169763,0.6765029,0.74053097,-0.09793254,0.7507534,0.31856623,0.05589417
362,1778415896.8271005,0.68680835,0.7415067,-0.08238286,0.6272059,0.05757405,-0.006872234
363,1778415896.8373842,0.68680835,0.7415067,-0.08238286,0.6272059,0.05757405,-0.006872234
364,1778415896.847524,0.69290626,0.6919306,-0.020854875,0.6046039,0.0009162979,-0.049480084
365,1778415896.8576338,0.6773566,0.6836984,-0.012927583,0.6366743,0.08155051,-0.05100725
366,1778415896.867843,0.67138064,0.63735425,-0.014086187,0.6403395,0.2612976,-0.022602014
367,1778415896.8779614,0.6726002,0.60223025,-0.039209604,0.54351735,0.3848451,0.0421497
368,1778415896.888083,0.6802836,0.6041206,-0.063540295,0.3846924,0.47250426,0.12705997
369,1778415896.8981917,0.71315134,0.6361347,-0.12708059,0.28191432,0.4538729,0.16600263
370,1778415896.9083657,0.71315134,0.6361347,-0.12708059,0.28191432,0.4538729,0.16600263
371,1778415896.9185,0.722908,0.6945527,-0.14939895,0.21135938,0.018784106,0.04016439
372,1778415896.9286304,0.7269327,0.66589254,-0.11323831,0.25335637,-0.1647809,-0.024129177
373,1778415896.9387379,0.7241886,0.63332963,-0.07165052,0.2941316,-0.2096795,-0.03940081
374,1778415896.948912,0.7154686,0.57344806,-0.03719729,0.31887165,-0.07467828,0.049938235
375,1778415896.9590368,0.69784564,0.5397876,-0.037929043,0.2845105,0.09086621,0.15943582
376,1778415896.9691887,0.6986993,0.5358849,-0.055917896,0.19394971,0.30115658,0.30741793
377,1778415896.9794846,0.71809065,0.5601546,-0.08482202,0.076358154,0.38148534,0.39553526
378,1778415896.9895978,0.7447386,0.57863134,-0.11909231,-0.0571159,0.3303254,0.4213443
379,1778415896.9997704,0.769923,0.6019254,-0.1548261,-0.14996742,0.09086621,0.3827071
380,1778415897.0098927,0.7913876,0.6111332,-0.16177773,-0.11056661,-0.28939742,0.29245174
381,1778415897.0200126,0.7915706,0.5907662,-0.112994395,0.029474247,-0.6386596,0.19028452
382,1778415897.0301075,0.79132664,0.5567398,-0.054942228,0.18707748,-0.83260936,0.16508633
383,1778415897.040299,0.78724104,0.52423793,0.011464084,0.26984972,-0.8378017,0.20586158
384,1778415897.0504165,0.784558,0.50045604,0.06512575,0.31306845,-0.678824,0.30726522
385,1778415897.0605469,0.77449644,0.48490632,0.09537142,0.28237244,-0.36743546,0.45356745
386,1778415897.0706842,0.75736123,0.49563867,0.08128523,0.17547104,-0.008552114,0.5885687
387,1778415897.0808094,0.7645568,0.52289635,0.04463675,0.009315695,0.3023783,0.6507242
388,1778415897.09093,0.78443605,0.5549714,0.009817646,-0.15607607,0.48166725,0.63300914
389,1778415897.1011012,0.7977904,0.55192244,-0.032562874,-0.34300083,0.5635232,0.5737552
390,1778415897.1112971,0.80327857,0.5069808,-0.08335852,-0.52824575,0.5198463,0.5169447
391,1778415897.121508,0.79132664,0.4723446,-0.11811664,-0.6081163,0.33933565,0.51007247
392,1778415897.131731,0.766874,0.45136783,-0.12183637,-0.5476407,0.07620544,0.5225952
393,1778415897.1418657,0.7528488,0.4343546,-0.09488358,-0.40790528,-0.123547494,0.54901516
394,1778415897.1519997,0.7575442,0.41112155,-0.030550564,-0.18860464,-0.27550024,0.6102544
395,1778415897.1622899,0.7748623,0.39996237,0.022440333,-0.060322944,-0.2666427,0.6957755
396,1778415897.172427,0.79218036,0.4161218,0.06073525,-0.0917825,-0.1217149,0.7452556
397,1778415897.1825392,0.8014492,0.42100018,0.061649937,-0.2096795,0.03573562,0.7527387
398,1778415897.1926558,0.8086447,0.4180122,0.043600105,-0.36636642,0.20433442,0.7460192
399,1778415897.202787,0.80401033,0.38825434,0.0073175007,-0.5665775,0.40561453,0.75441855
400,1778415897.2129085,0.7998637,0.38666892,-0.03884373,-0.72356987,0.4728097,0.77198094
401,1778415897.2230413,0.8120596,0.39154723,-0.042807378,-0.7872526,0.4297437,0.7469355
402,1778415897.233259,0.86267227,0.32477504,-0.028477272,-0.74220127,0.33658674,0.6925685
403,1778415897.2435074,0.86267227,0.32477504,-0.028477272,-0.64950246,0.24801129,0.67057735
404,1778415897.2536392,0.8745633,0.2593444,-0.057320416,-0.5346598,0.100334615,0.7145596
405,1778415897.263772,0.8827344,0.2534904,-0.06951625,-0.48395798,-0.07971791,0.8006916
406,1778415897.273872,0.8857224,0.29148042,-0.07408969,-0.4005749,-0.35995236,0.8202393
407,1778415897.2839692,0.9339569,0.3257507,-0.002500146,-0.4109596,-0.4334089,0.79336125
408,1778415897.2941525,0.9339569,0.3257507,-0.002500146,-0.4109596,-0.4334089,0.79336125
409,1778415897.3043056,0.9580437,0.32093337,0.037807085,-0.47891834,-0.41508293,0.77320266
410,1778415897.3144095,1.0184741,0.29843205,0.04402696,-0.572228,-0.344528,0.7498371
411,1778415897.3245273,1.0328041,0.29294392,-0.013842272,-0.6488916,-0.26099217,0.6711882
412,1778415897.334631,1.0428047,0.2719671,-0.03957548,-0.6093381,-0.31673363,0.65102965
413,1778415897.3447266,1.0417681,0.2587956,-0.04384402,-0.5844453,-0.41691554,0.64950246
414,1778415897.354863,1.0326823,0.26708874,-0.0248795,-0.56214875,-0.5111415,0.6356053
415,1778415897.3649852,1.0326823,0.26708874,-0.0248795,-0.56214875,-0.5111415,0.6356053
416,1778415897.37518,1.0371337,0.25690526,0.0009146876,-0.4700608,-0.6406449,0.57451874
417,1778415897.3852918,1.0434755,0.2432459,-0.0019513334,-0.4100433,-0.6892087,0.54458636
418,1778415897.3954222,1.0434755,0.2432459,-0.0019513334,-0.32345316,-0.753655,0.51175237
419,1778415897.4055781,1.0545737,0.22617173,-0.006707709,-0.32345316,-0.753655,0.51175237
420,1778415897.4156818,1.0664647,0.22233005,0.020976834,-0.18081611,-0.79549927,0.474795
421,1778415897.425785,1.0777458,0.19556019,0.052686002,-0.2012801,-0.7350236,0.46654832
422,1778415897.4359124,1.0826851,0.17171735,0.065491624,-0.2576324,-0.65270954,0.47571132
423,1778415897.4460423,1.0873805,0.14976484,0.048112564,-0.3284928,-0.56062156,0.49495357
424,1778415897.4563022,1.0906734,0.124336526,0.030245667,-0.35246924,-0.5207626,0.50503284
425,1778415897.4664183,1.0934175,0.111165024,0.010366458,-0.3352123,-0.5184719,0.52198434
426,1778415897.4766383,1.0900027,0.12086072,-0.0028050416,-0.22128594,-0.55756724,0.5354234
427,1778415897.486955,1.0900027,0.12086072,-0.0028050416,-0.22128594,-0.55756724,0.5354234
428,1778415897.4970806,1.0826851,0.13305654,-0.0033538544,-0.1498147,-0.57009,0.5311473
429,1778415897.507201,1.0548787,0.15208204,-0.017013188,0.035888333,-0.5832236,0.4288274
430,1778415897.5173976,1.0664037,0.1232389,-0.03969744,0.08384126,-0.6064365,0.3817908
431,1778415897.5275297,1.0823803,0.086712375,-0.04396598,0.13194689,-0.6427829,0.3642284
432,1778415897.5376484,1.1082355,0.07884607,-0.041587792,0.16707164,-0.65500027,0.36987892
433,1778415897.5478795,1.1218947,0.0939689,-0.043661084,0.19990565,-0.63713247,0.37201694
434,1778415897.558,1.1365297,0.10957957,-0.042319544,0.2302962,-0.6035349,0.35231653
435,1778415897.5681293,1.1424447,0.11787273,-0.03609967,0.25335637,-0.5494733,0.3275765
436,1778415897.5782456,1.1541528,0.11787273,-0.02786748,0.26083946,-0.4746423,0.3031419
437,1778415897.5883486,1.1672632,0.12317792,-0.03963646,0.24174993,-0.3370449,0.25335637
438,1778415897.5984635,1.1715927,0.12561709,-0.05329579,0.2237294,-0.2706133,0.22434026
439,1778415897.608638,1.1816543,0.12744646,-0.084456146,0.17501289,-0.18600847,0.1600467
440,1778415897.618737,1.1967162,0.12647079,-0.094212815,0.14569137,-0.14492778,0.11759156
441,1778415897.6289437,1.2070217,0.14013013,-0.08512692,0.09789115,-0.078343466,0.032528576
442,1778415897.6390488,1.2066557,0.15671647,-0.07451654,0.06841691,-0.016646078,-0.046578474
443,1778415897.6491563,1.2022653,0.14263028,-0.06274756,0.056963183,0.079870634,-0.15653422
444,1778415897.6592572,1.1842765,0.12409261,-0.055247124,0.06154467,0.1956296,-0.24327709
445,1778415897.669461,1.1637874,0.10756725,-0.047746688,0.07009678,0.3173445,-0.3080288
446,1778415897.6795905,1.1393958,0.09494456,-0.043722063,0.07895433,0.39568797,-0.3275765
447,1778415897.6897008,1.1060401,0.08366342,-0.0775655,0.11835514,0.5172501,-0.3387248
448,1778415897.699829,1.094698,0.07634591,-0.10616472,0.1572978,0.54000485,-0.3304781
449,1778415897.709944,1.0748798,0.07915096,-0.16403395,0.2603813,0.47678033,-0.30726522
450,1778415897.7200422,1.0732943,0.08787098,-0.19080381,0.35705075,0.36880988,-0.2790127
451,1778415897.7301712,1.0723187,0.1214705,-0.19781642,0.49586987,0.20051652,-0.25244007
452,1778415897.7402985,1.0734164,0.16439983,-0.19177948,0.63789606,0.02367103,-0.2565634
453,1778415897.7504148,1.0853072,0.17903483,-0.16269243,0.76159626,-0.11575896,-0.30207285
454,1778415897.7605608,1.1019546,0.15860681,-0.14025208,0.8373435,-0.17531833,-0.33964106
455,1778415897.77068,1.1282976,0.11866546,-0.123604774,0.8903361,-0.20693061,-0.35735616
456,1778415897.7807927,1.1302489,0.09238344,-0.117140986,0.89552844,-0.19364429,-0.3231477
457,1778415897.7909377,1.1248827,0.09287128,-0.115128666,0.88270026,-0.1731803,-0.2910773
458,1778415897.8011737,1.121041,0.10165227,-0.11128698,0.8530733,-0.113926366,-0.25534168
459,1778415897.8113325,1.1171383,0.12647079,-0.11433593,0.82558435,-0.049785517,-0.2499966
460,1778415897.8215833,1.094698,0.1542773,-0.12854409,0.79534656,0.004581489,-0.26313022
461,1778415897.8317187,1.0864048,0.16348514,-0.13976426,0.7359399,0.03634648,-0.28206703
462,1778415897.8418424,1.077136,0.16153382,-0.14214244,0.64843345,0.03313944,-0.29947668
463,1778415897.8520172,1.077136,0.16494864,-0.14122775,0.5572618,0.03481932,-0.31444287
464,1778415897.8623714,1.0951859,0.17031482,-0.13543473,0.49510628,0.025503624,-0.34208453
465,1778415897.8725884,1.1196995,0.15915562,-0.113116354,0.44501534,0.03191771,-0.38805214
466,1778415897.8827255,1.124151,0.15525296,-0.10092052,0.4266894,0.06093381,-0.41340306
467,1778415897.8928487,1.1139675,0.15921661,-0.084883004,0.43554693,0.1525636,-0.4280638
468,1778415897.9030907,1.1198823,0.1621436,-0.079089984,0.4503604,0.20433442,-0.43799037
469,1778415897.9132192,1.1306148,0.15921661,-0.07128465,0.47632217,0.3199407,-0.45891252
470,1778415897.923373,1.1214069,0.18409611,-0.073845774,0.41508293,0.50961435,-0.5056437
471,1778415897.9336236,1.1074426,0.2250741,-0.06238169,0.12782355,0.86452705,-0.68707067
472,1778415897.9438603,1.0491467,0.20745113,-0.10488417,-0.059864793,1.0355693,-0.75228053
473,1778415897.9539623,1.0491467,0.20745113,-0.10488417,-0.059864793,1.0355693,-0.75228053
474,1778415897.9640753,1.0290844,0.19867012,-0.11592139,-0.20372356,1.1267409,-0.7640397
475,1778415897.9741926,1.030426,0.1879378,-0.12897095,-0.33200526,1.180497,-0.75655663
476,1778415897.9844108,1.0290844,0.20598765,-0.11549455,-0.39370266,1.212262,-0.75716746
477,1778415897.9945493,1.0203644,0.22354963,-0.11165286,-0.41920626,1.2341005,-0.77518797
478,1778415898.004675,1.0024976,0.24653877,-0.09177365,-0.46700647,1.2548699,-0.8335256
479,1778415898.0147996,0.96408063,0.26849127,-0.09128582,-0.47968194,1.2657127,-0.9042333
480,1778415898.0249212,0.904443,0.27239394,-0.11878742,-0.44089198,1.176221,-0.9671524
481,1778415898.035027,0.82986546,0.27245492,-0.12342183,-0.25045475,0.64812803,-1.0187705
482,1778415898.0451317,0.8244993,0.30379823,-0.048173543,-0.10995574,0.41462478,-1.0352639
483,1778415898.0552688,0.8399271,0.31020102,0.013049542,-0.005955936,0.3585779,-1.0338894
484,1778415898.0654156,0.86761165,0.33709285,0.06726002,0.06001751,0.42577308,-1.0210613
485,1778415898.0755754,0.8496228,0.36489934,0.07396773,0.049938235,0.5644395,-1.0195341
486,1778415898.0858626,0.8496228,0.36489934,0.07396773,0.049938235,0.5644395,-1.0195341
487,1778415898.0959644,0.78315544,0.41508517,0.01597654,-0.17806722,0.7153232,-0.98761636
488,1778415898.10616,0.78315544,0.41508517,0.01597654,-0.17806722,0.7153232,-0.98761636
489,1778415898.1163044,0.7704718,0.4170365,0.01603752,-0.33353242,0.70402217,-0.99097615
490,1778415898.1264207,0.8024858,0.36727753,0.0016464376,-0.34605515,0.52687126,-0.9335548
491,1778415898.1365414,0.813706,0.37800986,0.005914979,-0.20295998,0.37659842,-0.839787
492,1778415898.146682,0.79827833,0.42191488,0.018842563,-0.04734206,0.27320948,-0.75594574
493,1778415898.1568036,0.7808992,0.45655105,0.030367626,0.05971208,0.22082779,-0.6934848
494,1778415898.1669405,0.76638615,0.4750887,0.047807667,0.10262536,0.2012801,-0.6388123
495,1778415898.1770515,0.7544343,0.49515083,0.07646788,0.10262536,0.2012801,-0.6388123
496,1778415898.187162,0.75498307,0.4932605,0.09299323,-0.058643065,0.30115658,-0.5661194
497,1778415898.1972978,0.75498307,0.4932605,0.09299323,-0.058643065,0.30115658,-0.5661194
498,1778415898.2074313,0.752178,0.48496732,0.11640923,-0.22999077,0.42745295,-0.54336464
499,1778415898.2175388,0.7526659,0.4679541,0.12866604,-0.42287147,0.5888741,-0.52412236
500,1778415898.2276669,0.781509,0.45417285,0.060552314,-0.6270532,0.674548,-0.35918877
501,1778415898.2377954,0.78876555,0.49649242,0.030123709,-0.52870387,0.5751296,-0.29428434
502,1778415898.2479193,0.790229,0.5164326,0.022196416,-0.38255435,0.4428773,-0.2848159
503,1778415898.2580216,0.7918145,0.5174692,0.040673107,-0.18707748,0.28023443,-0.28955013
504,1778415898.268305,0.7836433,0.51411533,0.07043094,-0.051618114,0.17684549,-0.27152961
505,1778415898.278422,0.7632762,0.5136885,0.08506594,-0.030848695,0.12614368,-0.2350304
506,1778415898.2885506,0.7487022,0.53808016,0.09031015,-0.069485925,0.113162786,-0.20891592
507,1778415898.2987657,0.72778636,0.56826484,0.081956,-0.17363845,0.10277808,-0.17486018
508,1778415898.3088694,0.7063217,0.5833877,0.07658983,-0.30589077,0.061391957,-0.1638646
509,1778415898.319106,0.7063217,0.5833877,0.07658983,-0.30589077,0.061391957,-0.1638646
510,1778415898.329399,0.6948576,0.5518005,0.12201932,-0.47403142,-0.09697486,-0.13423763
511,1778415898.3395112,0.6802836,0.52557945,0.15049659,-0.49312097,-0.12812899,-0.09010262
512,1778415898.3496225,0.67339295,0.5109445,0.14330104,-0.43295074,-0.15989397,0.008399397
513,1778415898.3597505,0.68455213,0.50746864,0.12573905,-0.34468073,-0.20250183,0.12003502
514,1778415898.369865,0.6961382,0.54497087,0.09531044,-0.1788308,-0.2780964,0.24923302
515,1778415898.3799727,0.6986383,0.59222966,0.08823685,-0.04520403,-0.35476,0.31871894
516,1778415898.3901033,0.6968699,0.68193007,0.09256637,0.024892759,-0.4288274,0.3277292
517,1778415898.400357,0.69565034,0.7399212,0.110189356,-0.034055736,-0.43569964,0.26710084
518,1778415898.4104924,0.6948576,0.7575442,0.1387886,-0.25305092,-0.38148534,0.17516561
519,1778415898.4206178,0.6784542,0.7483363,0.1656804,-0.25305092,-0.38148534,0.17516561
520,1778415898.4307466,0.67016107,0.70211416,0.19080381,-0.8042041,-0.07819075,0.078343466
521,1778415898.4408972,0.6785152,0.65485525,0.21635409,-0.9615019,0.11804971,0.11927144
522,1778415898.4510343,0.7013824,0.6275976,0.22373258,-0.99387777,0.279929,0.1872302
523,1778415898.4611611,0.7097365,0.63150024,0.23190376,-0.9260717,0.4978552,0.28588495
524,1778415898.4714072,0.73303056,0.6494281,0.20592664,-0.77854776,0.6791294,0.3764457
525,1778415898.4815474,0.74608016,0.6801007,0.17897385,-0.6658431,0.77381355,0.42562035
526,1778415898.49174,0.7478485,0.74772656,0.1153116,-0.5590944,0.8034405,0.4196644
527,1778415898.5018637,0.76565444,0.7676058,0.06695513,-0.51343226,0.7538077,0.3911065
528,1778415898.5119655,0.76565444,0.7676058,0.06695513,-0.48823404,0.5002986,0.27046058
529,1778415898.5220892,0.7501047,0.7487632,-0.09726177,-0.48166725,0.20357084,0.14156802
530,1778415898.5322394,0.71760285,0.6697952,-0.125861,-0.46609017,-0.13194689,0.07238753
531,1778415898.5424836,0.6796128,0.6313173,-0.10994543,-0.45142943,-0.35262197,0.08659015
532,1778415898.5528593,0.62101185,0.6363786,-0.043600105,-0.4213443,-0.5325218,0.16798794
533,1778415898.563155,0.56942344,0.6955284,0.038965687,-0.38896844,-0.57971114,0.28512135
534,1778415898.5732617,0.53289694,0.77858204,0.10183521,-0.32543847,-0.49434268,0.39095375
535,1778415898.5834205,0.5277137,0.8229748,0.118604474,-0.28298333,-0.39446622,0.46410486
536,1778415898.5937576,0.526921,0.88974696,0.12598296,-0.2854268,-0.30283645,0.52183163
537,1778415898.6040227,0.5406413,0.94042075,0.11592139,-0.32406402,-0.29168814,0.5320636
538,1778415898.6141386,0.5452757,1.0637206,0.1185435,-0.37950003,-0.33368513,0.47250426
539,1778415898.624257,0.5630816,1.109089,0.14250831,-0.45097128,-0.43585235,0.30543262
540,1778415898.6343594,0.63576883,1.0043269,0.19641389,-0.46838093,-0.5166393,0.18692477
541,1778415898.6445818,0.63576883,1.0043269,0.19641389,-0.43890667,-0.5554292,0.12782355
542,1778415898.6546817,0.7332745,0.87133133,0.25275865,-0.16890424,-0.39767328,0.10934488
543,1778415898.6648068,0.7741915,0.84010994,0.26495448,0.011759156,-0.25030205,0.13591751
544,1778415898.6749344,0.790229,0.84883,0.251722,0.15592335,-0.112399206,0.1469131
545,1778415898.6850514,0.81096196,0.8521839,0.21123183,0.27916542,0.014813482,0.1421789
546,1778415898.6951792,0.8122425,0.8827954,0.16677801,0.3080288,0.044745877,0.100334615
547,1778415898.7054954,0.8122425,0.8827954,0.16677801,0.3080288,0.044745877,0.100334615
548,1778415898.715679,0.81748676,0.9070651,0.13061738,0.2826779,0.007483099,0.013744468
549,1778415898.7257917,0.82712144,0.85248876,0.1299466,0.13958271,-0.20158553,-0.2237294
550,1778415898.7359219,0.81980395,0.8013272,0.15317966,0.12644911,-0.24495697,-0.30207285
551,1778415898.74602,0.81980395,0.8013272,0.15317966,0.15042557,-0.21624629,-0.34254268
552,1778415898.756145,0.7715694,0.7102853,0.19135264,0.182496,-0.14034629,-0.33551773
553,1778415898.7662687,0.73839676,0.7001018,0.19153556,0.22327125,-0.07788532,-0.28802297
554,1778415898.776401,0.6911989,0.7332745,0.1890964,0.2874121,-0.009468411,-0.22495113
555,1778415898.786561,0.6579652,0.763947,0.1568994,0.3678936,0.0070249503,-0.18906279
556,1778415898.7966592,0.64076906,0.7848629,0.12958074,0.43569964,-0.054825157,-0.16539176
557,1778415898.8067768,0.6377811,0.80041254,0.1086039,0.47051895,-0.118966006,-0.16462818
558,1778415898.8168776,0.6395495,0.81303525,0.069577225,0.5543602,-0.28588495,-0.17913623
559,1778415898.8272867,0.6395495,0.81303525,0.069577225,0.5543602,-0.28588495,-0.17913623
560,1778415898.8373952,0.6613191,0.7944366,0.048234522,0.6960809,-0.5206099,-0.17959438
561,1778415898.8475034,0.66863656,0.7929731,0.046283185,0.7432703,-0.56062156,-0.17898351
562,1778415898.857594,0.67199045,0.78175294,0.042929336,0.7673995,-0.5656612,-0.1815797
563,1778415898.867691,0.6772956,0.7773624,0.0395145,0.77732605,-0.52595496,-0.18906279
564,1778415898.8777778,0.6826618,0.7617518,0.04542948,0.7460192,-0.47143525,-0.1873829
565,1778415898.8878658,0.69376,0.73979926,0.031892106,0.66767573,-0.4118759,-0.1693624
566,1778415898.8979864,0.69949204,0.7397383,0.008537084,0.55756724,-0.4089743,-0.14874569
567,1778415898.908079,0.69656503,0.75681245,0.005549104,0.50640726,-0.43401974,-0.15806139
568,1778415898.9181893,0.6946747,0.7607151,0.012805625,0.47784933,-0.4700608,-0.19700404
569,1778415898.9283307,0.69174767,0.7422384,0.019269416,0.505491,-0.4653266,-0.23273966
570,1778415898.9384484,0.69650406,0.69784564,0.019513333,0.52488595,-0.452193,-0.23900102
571,1778415898.9486713,0.6935161,0.66863656,0.019696271,0.5242751,-0.40393466,-0.20219639
572,1778415898.9587934,0.69924814,0.6340004,0.010122542,0.5019785,-0.36636642,-0.15790866
573,1778415898.9689298,0.7104073,0.6135114,0.0019513334,0.47494772,-0.32406402,-0.08536842
574,1778415898.9790401,0.7147368,0.60759646,-0.0082321875,0.46502116,-0.2817616,-0.016646078
575,1778415898.9891894,0.7136392,0.6172921,-0.028233355,0.45234573,-0.24785857,0.027488936
576,1778415898.999315,0.72376174,0.6328418,-0.051710334,0.41493022,-0.25977045,0.052381694
577,1778415899.0094657,0.7340062,0.646989,-0.05573496,0.37614027,-0.28115073,0.063682705
578,1778415899.0196555,0.73888457,0.6591848,-0.059698608,0.31520647,-0.31230485,0.058184914
579,1778415899.0297568,0.7637641,0.64308625,-0.05195425,0.2434298,-0.33964106,0.05024367
580,1778415899.0398757,0.7857775,0.6245487,-0.03439225,0.20234911,-0.3297145,0.070249505
581,1778415899.049985,0.7984612,0.6129016,-0.026586918,0.16783522,-0.2848159,0.1049161
582,1778415899.0601668,0.8092545,0.6104625,-0.012500729,0.12843442,-0.23518312,0.13973543
583,1778415899.0703135,0.8059007,0.60558414,-0.0037197291,0.11682798,-0.18448131,0.16432275
584,1778415899.0805073,0.7979734,0.6046084,-0.019696271,0.11133019,-0.13622294,0.19379699
585,1778415899.0907543,0.7979734,0.60021794,-0.023111105,0.09560041,-0.15668693,0.21471913
586,1778415899.1008806,0.7838872,0.6041206,-0.008963938,0.09315695,-0.18432859,0.22571471
587,1778415899.1111975,0.77132547,0.6154018,0.00512225,0.11866058,-0.17730364,0.22800545
588,1778415899.121377,0.75736123,0.60814524,0.03683142,0.15042557,-0.11591168,0.21548271
589,1778415899.131527,0.7412628,0.5803997,0.04969802,0.14523321,-0.00015271631,0.2218968
590,1778415899.1416502,0.7392504,0.547227,0.04164877,0.11255192,0.14844026,0.26526824
591,1778415899.1517806,0.74388486,0.5213719,0.0082321875,0.05207626,0.27779096,0.3295618
592,1778415899.1620553,0.73638445,0.5266161,-0.027318668,-0.012675454,0.32284227,0.3817908
593,1778415899.1721938,0.7304085,0.5436293,-0.05799119,-0.05024367,0.302531,0.39920044
594,1778415899.1823397,0.7283352,0.5543006,-0.08238286,-0.082161374,0.24113905,0.39095375
595,1778415899.1926255,0.7301646,0.5479588,-0.095493376,-0.10781772,0.08811731,0.3529274
596,1778415899.2027407,0.7271766,0.52942115,-0.10220108,-0.11835514,-0.028710667,0.3370449
597,1778415899.2128723,0.7271156,0.5084443,-0.10207913,-0.10934488,-0.14828753,0.33307427
598,1778415899.2229948,0.73754305,0.48807728,-0.062076796,-0.08903361,-0.24846944,0.35476
599,1778415899.2331192,0.7529098,0.47984505,-0.010061563,-0.1142318,-0.2603813,0.3904956
600,1778415899.2432404,0.7648007,0.47746688,0.025428312,-0.19746219,-0.21533,0.41829
601,1778415899.2533646,0.7834603,0.4663077,0.0482955,-0.29520062,-0.15561792,0.43279803
602,1778415899.2634726,0.7885826,0.40825552,0.03207504,-0.37186423,-0.059864793,0.46670106
603,1778415899.2735922,0.7885826,0.40825552,0.03207504,-0.37186423,-0.059864793,0.46670106
604,1778415899.2837043,0.78839964,0.40234053,-0.0019513334,-0.36560285,-0.082924955,0.50701815
605,1778415899.2938201,0.7957171,0.4174634,-0.005427146,-0.3295618,-0.13973543,0.5102252
606,1778415899.3041666,0.81645006,0.42825672,0.039148625,-0.313832,-0.13133603,0.48930305
607,1778415899.3142886,0.8360854,0.40538952,0.07134563,-0.3463606,-0.04444045,0.4653266
608,1778415899.3243918,0.85504985,0.35032532,0.08323657,-0.45081854,0.14309518,0.47403142
609,1778415899.33449,0.84590304,0.30568856,-0.04969802,-0.786489,0.3379612,0.6366743
610,1778415899.3446956,0.82657266,0.34892282,-0.13360536,-0.84482664,0.14172074,0.61621034
611,1778415899.3548193,0.8235237,0.3795953,-0.16049717,-0.7770206,-0.1469131,0.5319109
612,1778415899.3649373,0.8480373,0.386425,-0.13970327,-0.5879578,-0.54244834,0.37522396
613,1778415899.3751378,0.901577,0.35050824,-0.052625023,-0.355829,-0.8356637,0.22204952
614,1778415899.385449,0.901577,0.35050824,-0.052625023,-0.355829,-0.8356637,0.22204952
615,1778415899.3955503,0.94103056,0.3000175,0.056954544,-0.064751714,-0.98792183,0.073303826
616,1778415899.4058957,0.94103056,0.3000175,0.056954544,-0.064751714,-0.98792183,0.073303826
617,1778415899.4161572,0.94847,0.2591005,0.091224834,-0.0035124752,-0.9098838,0.07269296
618,1778415899.4262736,0.9276761,0.26001516,0.035367917,-0.11026118,-0.70906186,0.205098
619,1778415899.4364116,0.94103056,0.2613567,-0.016220458,-0.16768251,-0.6713409,0.26068676
620,1778415899.446539,0.96578807,0.25007555,-0.039087646,-0.20005837,-0.68569624,0.31123585
621,1778415899.4568005,0.99005777,0.22665958,-0.042014647,-0.23716843,-0.689056,0.35430184
622,1778415899.4669213,1.0042049,0.22665958,-0.047868647,-0.30573806,-0.68508536,0.41141775
623,1778415899.477143,1.0265843,0.25099024,-0.058844898,-0.4036292,-0.6808093,0.45265114
624,1778415899.4873662,1.0354263,0.28117493,-0.056588665,-0.49586987,-0.68645984,0.44623706
625,1778415899.497475,1.0471952,0.2992248,-0.047990605,-0.5823073,-0.6702719,0.4092797
626,1778415899.5075772,1.0672574,0.29239509,-0.036343586,-0.6383542,-0.6302602,0.35964692
627,1778415899.5177774,1.0672574,0.29239509,-0.036343586,-0.6383542,-0.6302602,0.35964692
628,1778415899.5282261,1.0872586,0.2695279,-0.02561125,-0.66996646,-0.538325,0.30024028
629,1778415899.5383422,1.0873195,0.23934323,-0.0045124586,-0.63239825,-0.34315357,0.29642236
630,1778415899.548475,1.0873195,0.23934323,-0.0045124586,-0.63239825,-0.34315357,0.29642236
631,1778415899.5585814,1.1051865,0.2309891,-0.023476979,-0.5742133,-0.16264287,0.31566462
632,1778415899.5687084,1.115248,0.25867364,-0.07036996,-0.536187,-0.05787948,0.29947668
633,1778415899.5788686,1.1039059,0.26885715,-0.10348164,-0.52183163,-0.037415497,0.26145032
634,1778415899.5889997,1.0861609,0.27952853,-0.13945936,-0.49373183,-0.09315695,0.19990565
635,1778415899.5992086,1.0821973,0.28434587,-0.15604569,-0.4653266,-0.15241088,0.16539176
636,1778415899.6093895,1.0690258,0.28434587,-0.15549688,-0.4008803,-0.26725355,0.11560625
637,1778415899.6195185,1.0446951,0.29221216,-0.15013072,-0.34574974,-0.35445455,0.096516706
638,1778415899.6296172,1.0341457,0.29080966,-0.12281204,-0.25320363,-0.46593747,0.08323039
639,1778415899.6397426,1.0404875,0.2766625,-0.10768921,-0.16340645,-0.49418998,0.094531395
640,1778415899.6498384,1.0503662,0.2713573,-0.085309856,-0.08659015,-0.45845437,0.11453723
641,1778415899.6599572,1.0640866,0.27184513,-0.070735835,-0.05085453,-0.3921755,0.13026701
642,1778415899.6700788,1.0607326,0.28263843,-0.061101127,-0.062155537,-0.24740042,0.13545936
643,1778415899.6802495,1.0456098,0.29379764,-0.07616298,-0.13057245,-0.09865474,0.12782355
644,1778415899.690375,1.0434146,0.27812597,-0.10915271,-0.2125811,-0.027183503,0.13118331
645,1778415899.7005816,1.0485368,0.24690464,-0.1454963,-0.2864958,-0.021838432,0.13927728
646,1778415899.7107027,1.050732,0.2151345,-0.16909523,-0.32788193,-0.06872234,0.1518
647,1778415899.720834,1.0312186,0.20537783,-0.17872995,-0.32467487,-0.20861048,0.17852537
648,1778415899.7309518,1.015669,0.20446315,-0.15921661,-0.27076602,-0.34162638,0.18753563
649,1778415899.7412462,1.0172545,0.1952553,-0.13823977,-0.21074851,-0.43600506,0.18203785
650,1778415899.751376,1.024694,0.17580293,-0.102140106,-0.14813483,-0.5123632,0.18493946
651,1778415899.7616186,1.024389,0.16171674,-0.06994311,-0.1020145,-0.52580225,0.19303341
652,1778415899.7718282,1.0405486,0.16080207,-0.055430062,-0.055588737,-0.5128214,0.2133447
653,1778415899.7821484,1.0523175,0.17879093,-0.049759,0.0016798794,-0.47571132,0.22143865
654,1778415899.7924373,1.065428,0.1885476,-0.06347931,0.065973446,-0.43753225,0.20616703
655,1778415899.8027318,1.0911613,0.19921893,-0.084029295,0.16875152,-0.42714754,0.15851954
656,1778415899.812853,1.1019546,0.20891462,-0.078785084,0.21212296,-0.42378777,0.13240504
657,1778415899.8229866,1.1093329,0.2274523,-0.07311402,0.2761111,-0.37950003,0.07192938
658,1778415899.8331215,1.109455,0.24507529,-0.05372265,0.30497447,-0.3109304,0.011759156
659,1778415899.8434281,1.106101,0.24166043,-0.038172957,0.31505376,-0.16630806,-0.046883907
660,1778415899.8535514,1.0988446,0.23586741,-0.035672814,0.3118467,-0.020463986,-0.08689558
661,1778415899.863666,1.0807338,0.2338551,-0.04530752,0.29565877,0.18707748,-0.11835514
662,1778415899.8740342,1.0649402,0.2206836,-0.07335794,0.20158553,0.5036584,-0.13041973
663,1778415899.884154,1.059391,0.21037814,-0.108298995,0.20158553,0.5036584,-0.13041973
664,1778415899.8942573,1.0478051,0.21757366,-0.17641273,0.12339478,0.6065892,-0.122020334
665,1778415899.904385,1.0478051,0.21757366,-0.17641273,0.12339478,0.6065892,-0.122020334
666,1778415899.9145067,1.0462196,0.21653701,-0.19927992,0.112399206,0.58123827,-0.12568553
667,1778415899.9246497,1.0432925,0.22141537,-0.19976775,0.11178834,0.50533825,-0.13439035
668,1778415899.9347641,1.0821973,0.23031832,-0.13092227,0.10705414,0.38224894,-0.17608191
669,1778415899.9448786,1.0984787,0.2128173,-0.085614756,0.105832405,0.42332962,-0.2041817
670,1778415899.9549809,1.1029912,0.19921893,-0.05683258,0.11102476,0.48365256,-0.2078469
671,1778415899.9650805,1.0928686,0.20269476,-0.03884373,0.13454308,0.5739079,-0.2078469
672,1778415899.9752374,1.0860391,0.21879324,-0.04329521,0.19425514,0.62781674,-0.21578814
673,1778415899.9856207,1.091832,0.2206836,-0.058905877,0.19425514,0.62781674,-0.21578814
674,1778415899.9957554,1.109272,0.21623214,-0.07305304,0.4897612,0.6443101,-0.26526824
675,1778415900.005871,1.109272,0.21623214,-0.07305304,0.4897612,0.6443101,-0.26526824
676,1778415900.0161462,1.141652,0.18543765,-0.1094576,0.73792523,0.5717699,-0.2837469
677,1778415900.0262568,1.141652,0.18543765,-0.1094576,0.73792523,0.5717699,-0.2837469
678,1778415900.0364063,1.10915,0.16653411,-0.07658983,0.80557853,0.54244834,-0.2929099
679,1778415900.0465238,1.0926857,0.15000875,-0.054576356,0.7334964,0.65500027,-0.279929
680,1778415900.0566626,1.0860391,0.14232537,-0.017988855,0.6059783,0.79198676,-0.26618454
681,1778415900.0667634,1.0817704,0.14671588,-0.0014635,0.4905248,0.95065904,-0.2574797
682,1778415900.076861,1.0803679,0.17061971,0.0037197291,0.29886582,1.1785117,-0.2576324
683,1778415900.0869691,1.0825021,0.1598264,-0.043417167,0.16890424,1.2286028,-0.18646662
684,1778415900.097141,1.0853072,0.088114895,-0.041526813,0.1226312,1.2505939,-0.21777347
685,1778415900.107526,1.0853072,0.088114895,-0.041526813,0.1226312,1.2505939,-0.21777347
686,1778415900.1176267,1.0395119,0.17635176,-0.0734799,0.18997909,1.297325,-0.17440203
687,1778415900.1277292,0.9975582,0.21385394,-0.0983594,0.18997909,1.297325,-0.17440203
688,1778415900.1379118,0.9945092,0.18897444,-0.10165227,0.37491855,1.0876455,-0.23900102
689,1778415900.148071,0.9829842,0.1671439,-0.064942814,0.44318274,0.9618073,-0.25442538
690,1778415900.1581843,0.97786194,0.14921603,-0.020062147,0.45051312,0.8953757,-0.21792617
691,1778415900.1683085,0.983411,0.16147284,0.011464084,0.42546764,0.87872964,-0.16752979
692,1778415900.1784506,0.97822785,0.20921952,0.027196707,0.35353827,0.8888089,-0.08857546
693,1778415900.188599,0.9642026,0.25556368,0.02555027,0.31474832,0.8901834,-0.077121735
694,1778415900.1986997,0.9584096,0.28434587,0.031221334,0.29535335,0.88422745,-0.0842994
695,1778415900.2089236,0.9580437,0.28776067,0.048722353,0.28878653,0.88071495,-0.119729586
696,1778415900.2190583,0.9609707,0.28971204,0.049637042,0.31031954,0.8744536,-0.15668693
697,1778415900.2291884,0.9774961,0.29215118,0.04085604,0.37033707,0.8512407,-0.20005837
698,1778415900.239293,0.97804487,0.2950782,0.0515274,0.40332377,0.8257371,-0.279929
699,1778415900.2494183,0.9829232,0.304347,0.049027253,0.3932445,0.8257371,-0.3202461
700,1778415900.2596555,0.97615457,0.30532268,0.054881252,0.3323107,0.8127562,-0.34040466
701,1778415900.269779,0.94164026,0.3302022,0.063113436,0.2582433,0.820392,-0.35811976
702,1778415900.2800503,0.8837711,0.37124115,0.07036996,0.16707164,0.82451534,-0.37797287
703,1778415900.2903278,0.83571947,0.3795953,0.09970094,0.073303826,0.81306165,-0.4100433
704,1778415900.3006132,0.8084618,0.35867947,0.11598238,-0.012980887,0.78694713,-0.4092797
705,1778415900.3107164,0.79053396,0.3621553,0.1325687,-0.0795652,0.7583892,-0.36942077
706,1778415900.32085,0.81004727,0.3728876,0.13482493,-0.14477506,0.7128797,-0.31749722
707,1778415900.3310504,0.82864594,0.4045358,0.13360536,-0.19837849,0.6227771,-0.28160888
708,1778415900.3411803,0.85072035,0.4556973,0.13952033,-0.19318613,0.5021312,-0.301462
709,1778415900.3513672,0.8718192,0.4586853,0.16427788,-0.14355333,0.34865135,-0.34254268
710,1778415900.361547,0.8719411,0.46264893,0.19391376,-0.08032878,0.21685717,-0.3726278
711,1778415900.3716977,0.8823075,0.45533144,0.21239044,-0.0047342055,0.124769226,-0.40042216
712,1778415900.3819046,0.89346683,0.41490227,0.22769623,0.09560041,0.05421429,-0.40530908
713,1778415900.3920379,0.9056016,0.3949011,0.22434235,0.19318613,0.05009095,-0.35002577
714,1778415900.4022815,0.910541,0.4007551,0.22867186,0.26358834,0.13179417,-0.27107146
715,1778415900.412576,0.91395575,0.40416992,0.22623271,0.25411993,0.26450464,-0.19486602
716,1778415900.4226973,0.9212123,0.43972078,0.21141478,0.1695151,0.42058071,-0.13133603
717,1778415900.4328835,0.8993208,0.5127738,0.1837912,-0.018478673,0.6122397,-0.13164146
718,1778415900.4431398,0.81846243,0.56436217,0.090371124,-0.24709499,0.70386946,-0.23075435
719,1778415900.4534588,0.81846243,0.56436217,0.090371124,-0.40133846,0.6612616,-0.35414913
720,1778415900.463563,0.73071337,0.4999072,0.021037813,-0.3277292,0.1554652,-0.4644103
721,1778415900.4736564,0.7188834,0.45508754,0.013598354,-0.05421429,-0.21868975,-0.41630468
722,1778415900.483827,0.7188834,0.45508754,0.013598354,-0.05421429,-0.21868975,-0.41630468
723,1778415900.4939418,0.7283352,0.45270932,0.049576063,0.28985557,-0.5317582,-0.2845105
724,1778415900.5040703,0.717054,0.49813882,0.10671354,0.5861252,-0.6623306,-0.17867808
725,1778415900.5141895,0.7183956,0.5207011,0.16202165,0.7096727,-0.61361414,-0.107665
726,1778415900.5243595,0.72845715,0.5081394,0.22873287,0.68569624,-0.47112983,-0.03390302
727,1778415900.534462,0.7297987,0.520945,0.29282197,0.48197266,-0.18768835,0.046883907
728,1778415900.5445893,0.71083415,0.51173717,0.30367625,-0.14202617,0.5839872,0.15088372
729,1778415900.5546923,0.7135782,0.51112735,0.26714975,-0.35369098,0.8155051,0.19868392
730,1778415900.5649307,0.7135782,0.51112735,0.26714975,-0.35369098,0.8155051,0.19868392
731,1778415900.5750887,0.7063217,0.5338726,0.1741565,-0.43676865,0.9944886,0.2744312
732,1778415900.58526,0.71107805,0.5479588,0.15067953,-0.39935315,0.9726502,0.27275133
733,1778415900.5954554,0.7075413,0.56594765,0.12336086,-0.35613444,0.9289733,0.24785857
734,1778415900.6056888,0.699614,0.58296084,0.09116385,-0.3417791,0.79611015,0.19853121
735,1778415900.6158996,0.699614,0.58296084,0.09116385,-0.3417791,0.79611015,0.19853121
736,1778415900.6261644,0.68985736,0.59515667,0.08677336,-0.38683042,0.65408397,0.14126259
737,1778415900.6362958,0.682052,0.61216986,0.08037054,-0.4700608,0.46517387,0.04520403
738,1778415900.646427,0.7125416,0.5660086,0.14183754,-0.6441574,0.1910481,-0.08811731
739,1778415900.6566052,0.73455507,0.5450318,0.16720487,-0.70112056,0.17333302,-0.08506299
740,1778415900.6667295,0.7473607,0.5407023,0.20025559,-0.7538077,0.25442538,-0.05024367
741,1778415900.6768565,0.75772715,0.5572886,0.20739016,-0.82772243,0.4007276,-0.010079277
742,1778415900.6869752,0.76699597,0.57387495,0.20434119,-0.9202685,0.514654,0.012980887
743,1778415900.6970909,0.76120293,0.6265,0.19385278,-1.0407617,0.63224554,0.01695151
744,1778415900.7071905,0.74949497,0.67424667,0.17610784,-1.157437,0.66538495,-0.016187929
745,1778415900.7177,0.74949497,0.67424667,0.17610784,-1.157437,0.66538495,-0.016187929
746,1778415900.7278073,0.69784564,0.7322379,0.15354554,-1.2567025,0.52366424,-0.1572978
747,1778415900.7380013,0.69784564,0.7322379,0.15354554,-1.2567025,0.52366424,-0.1572978
748,1778415900.7481065,0.68772304,0.670405,0.20165811,-1.2093605,0.3726278,-0.1910481
749,1778415900.7582188,0.6951625,0.6480866,0.23434295,-1.0082331,0.16294831,-0.09056077
750,1778415900.7684367,0.6963821,0.6666852,0.27263784,-0.90316427,0.0983493,0.013439035
751,1778415900.7785935,0.67424667,0.7086389,0.30166394,-0.799928,0.03390302,0.069791354
752,1778415900.788706,0.6503428,0.7485803,0.28544348,-0.6582073,-0.06566802,0.10751228
753,1778415900.7988122,0.63522,0.7734598,0.27172315,-0.52290064,-0.18341228,0.12186762
754,1778415900.8089423,0.6487574,0.8060836,0.24714857,-0.3510948,-0.3315471,0.1553125
755,1778415900.8190467,0.6444889,0.8445615,0.24989262,-0.2603813,-0.40194935,0.17516561
756,1778415900.8291454,0.6553431,0.8855395,0.25635642,-0.13072516,-0.473726,0.20433442
757,1778415900.8392537,0.6739418,0.92645645,0.25605154,-0.074830994,-0.49586987,0.23060162
758,1778415900.8493752,0.68375945,0.9498116,0.25635642,-0.050549097,-0.48624873,0.22800545
759,1778415900.8595035,0.70327276,0.95615333,0.26111278,-0.039858956,-0.48151454,0.20463985
760,1778415900.8696148,0.7272375,0.9532263,0.2736745,-0.0036651916,-0.45158213,0.16142114
761,1778415900.879769,0.737604,0.960117,0.29257807,0.026267206,-0.4034765,0.09758572
762,1778415900.889883,0.7415067,0.9518238,0.3008712,0.03940081,-0.344528,0.03145956
763,1778415900.9000158,0.746446,0.95377517,0.3134939,0.034055736,-0.26618454,-0.061239243
764,1778415900.910129,0.7473607,0.92846876,0.31416467,0.0032070426,-0.17073683,-0.16600263
765,1778415900.9202566,0.75364155,0.90115017,0.3108718,-0.01160644,-0.12721269,-0.22586742
766,1778415900.9304287,0.75931257,0.8494398,0.30343235,-0.01695151,-0.06337727,-0.30879238
767,1778415900.940583,0.7513853,0.80218095,0.28910223,0.02367103,-0.009315695,-0.39354995
768,1778415900.9507015,0.7419945,0.77242315,0.28495565,0.056046885,0.0050396384,-0.45142943
769,1778415900.9609587,0.73595756,0.72217625,0.27166218,0.06765333,-0.018020526,-0.48701233
770,1778415900.971117,0.7324818,0.6841862,0.27629662,0.087659165,-0.059101213,-0.517861
771,1778415900.981261,0.73193294,0.65637976,0.27355254,0.11407909,-0.08582657,-0.529162
772,1778415900.991453,0.7299207,0.6412569,0.26684484,0.15974127,-0.15714508,-0.538325
773,1778415901.0016506,0.7401042,0.6096087,0.26452765,0.24419338,-0.2264783,-0.54901516
774,1778415901.011845,0.7595565,0.59204674,0.26458862,0.32177326,-0.2509129,-0.53893584
775,1778415901.0219579,0.75760514,0.6032669,0.26794246,0.38866302,-0.24648413,-0.5163339
776,1778415901.0320868,0.74797046,0.6334516,0.2706865,0.4280638,-0.20570888,-0.47998735
777,1778415901.0422144,0.729006,0.6758931,0.2646496,0.39599338,-0.14767668,-0.45265114
778,1778415901.0523398,0.7120538,0.7197371,0.26007617,0.33185256,-0.12186762,-0.44211373
779,1778415901.062469,0.69790655,0.74608016,0.24684367,0.2967278,-0.10720685,-0.44791695
780,1778415901.0728252,0.7001018,0.73626244,0.2089756,0.29046643,-0.1301143,-0.45891252
781,1778415901.0830467,0.72077376,0.69815046,0.17263202,0.3313944,-0.2087632,-0.44348818
782,1778415901.0936131,0.7124196,0.7063827,0.16287535,0.40515637,-0.2875648,-0.4259258
783,1778415901.1038883,0.7007726,0.722969,0.15842387,0.4896085,-0.3736968,-0.41599923
784,1778415901.1142042,0.69156474,0.7215665,0.17165637,0.5170974,-0.44012842,-0.41630468
785,1778415901.1243374,0.6963821,0.71083415,0.17019285,0.49648073,-0.47616947,-0.40515637
786,1778415901.134457,0.7100414,0.7161393,0.16915621,0.4622723,-0.52183163,-0.38896844
787,1778415901.1445913,0.72059083,0.7440069,0.20690231,0.356898,-0.6443101,-0.42363504
788,1778415901.154734,0.7099805,0.75040966,0.22586684,0.34055737,-0.66721755,-0.47601673
789,1778415901.1648636,0.6963821,0.73485994,0.24452646,0.3484986,-0.66599584,-0.5299256
790,1778415901.17497,0.67973477,0.6939429,0.25208786,0.3848451,-0.62995476,-0.55481833
791,1778415901.1850915,0.67973477,0.6939429,0.25208786,0.4289801,-0.591623,-0.52458054
792,1778415901.195215,0.65363574,0.6334516,0.22726935,0.5030475,-0.5305365,-0.44440445
793,1778415901.2053251,0.6438181,0.6349151,0.20976834,0.56489766,-0.4717407,-0.35811976
794,1778415901.215455,0.6486354,0.6450986,0.19562118,0.5850562,-0.44409904,-0.2958115
795,1778415901.2256103,0.6486354,0.6450986,0.19562118,0.5850562,-0.44409904,-0.2958115
796,1778415901.235742,0.66820973,0.7269327,0.18336436,0.495259,-0.49189925,-0.26206118
797,1778415901.2458372,0.6775395,0.7440069,0.18952326,0.41309762,-0.54321194,-0.3297145
798,1778415901.255963,0.6931502,0.7244935,0.1934869,0.36743546,-0.57558775,-0.3904956
799,1778415901.2660828,0.6974797,0.6816251,0.19860914,0.3820962,-0.52748215,-0.40653083
800,1778415901.2763252,0.68705225,0.6406471,0.18281554,0.44516805,-0.4083634,-0.35430184
801,1778415901.2864294,0.670283,0.62015814,0.15872878,0.50488013,-0.2941316,-0.26908615
802,1778415901.2965465,0.6540016,0.60595,0.12287302,0.5421429,-0.1591304,-0.1432479
803,1778415901.3066487,0.6504648,0.6068647,0.0951275,0.49968776,-0.1142318,-0.048563786
804,1778415901.3168862,0.6538186,0.6288172,0.081346214,0.40668353,-0.13057245,0.012217305
805,1778415901.3270004,0.6538186,0.6288172,0.081346214,0.40668353,-0.13057245,0.012217305
806,1778415901.3371024,0.6913818,0.65119654,0.074272625,0.11804971,-0.31719178,-0.0071776668
807,1778415901.3472266,0.7315671,0.65394056,0.025489293,0.06627888,-0.5316055,-0.08155051
808,1778415901.357377,0.7501657,0.6320491,0.045002624,0.15775596,-0.7637343,-0.12812899
809,1778415901.367526,0.75455624,0.60381573,0.0670161,0.34132096,-0.9034697,-0.13255776
810,1778415901.377631,0.7302255,0.6077184,0.068052754,0.5532912,-1.0010555,-0.1067487
811,1778415901.3877313,0.70882183,0.60143757,0.07695571,0.69043046,-1.0355693,-0.07880162
812,1778415901.3978393,0.70351666,0.5849122,0.097017854,0.77595156,-1.0143417,-0.03313944
813,1778415901.407941,0.7313841,0.5552153,0.12677568,0.73929965,-0.9477574,0.022449298
814,1778415901.4180577,0.78224075,0.53283596,0.16318026,0.5180137,-0.7837401,0.122783914
815,1778415901.428192,0.81602323,0.54259264,0.181474,0.37843102,-0.6731735,0.15851954
816,1778415901.4382896,0.84437853,0.5639963,0.19049892,0.16875152,-0.48380527,0.19028452
817,1778415901.4485002,0.8482203,0.5874123,0.17427845,0.09483683,-0.28328875,0.20112738
818,1778415901.4586024,0.8237676,0.60930383,0.1460451,0.15027285,-0.11591168,0.19837849
819,1778415901.4687202,0.78657025,0.59948623,0.119946025,0.25809056,0.037873644,0.2049453
820,1778415901.4788575,0.758154,0.5833877,0.099274084,0.3100141,0.16187929,0.23396139
821,1778415901.488978,0.7424214,0.56436217,0.08384635,0.2687807,0.30558532,0.27855456
822,1778415901.4990785,0.7589467,0.5483247,0.08829784,0.13881913,0.4269948,0.3155119
823,1778415901.5093892,0.78407013,0.5330799,0.04835648,-0.14721853,0.573297,0.3736968
824,1778415901.5196085,0.7909608,0.5290553,-0.022135438,-0.24419338,0.56046885,0.37827832
825,1778415901.5297208,0.7868752,0.54728806,-0.15653352,-0.40958515,0.18875736,0.31337386
826,1778415901.5398288,0.77791125,0.5341165,-0.18799877,-0.2948952,-0.36560285,0.22693644
827,1778415901.5499406,0.77675265,0.5341775,-0.13354437,0.0154243475,-0.9257663,0.15577064
828,1778415901.5601263,0.8012053,0.5616791,-0.04183171,0.40026945,-1.3596333,0.09010262
829,1778415901.5702412,0.8143768,0.57155776,0.04756375,0.74296486,-1.5532776,0.012980887
830,1778415901.5806248,0.83846354,0.54631233,0.100127794,0.89919364,-1.5468636,-0.021685716
831,1778415901.5907629,0.85322046,0.5078345,0.13391025,0.9114109,-1.3672692,0.0016798794
832,1778415901.6009257,0.8565744,0.4688688,0.14238635,0.74021596,-1.0622946,0.06261369
833,1778415901.6111786,0.8632821,0.44642848,0.12884897,0.50732356,-0.7715228,0.13637567
834,1778415901.6213431,0.8587696,0.43953782,0.10457927,0.17806722,-0.40424007,0.23564127
835,1778415901.63157,0.85133016,0.4487457,0.08073642,-0.12614368,-0.07452556,0.3126103
836,1778415901.641682,0.8424882,0.46094155,0.059759583,-0.3098614,0.15195273,0.3587306
837,1778415901.6518118,0.84035397,0.46283188,0.026708877,-0.4596761,0.36025777,0.41813725
838,1778415901.661914,0.84187835,0.46606377,-0.050185855,-0.5038111,0.42317688,0.45540005
839,1778415901.6720624,0.84437853,0.46642965,-0.12317792,-0.42913285,0.2875648,0.4662429
840,1778415901.6821978,0.863709,0.4867967,-0.17055872,-0.23304509,0.07086037,0.44715336
841,1778415901.6924312,0.8938936,0.5057612,-0.17464434,-0.00992656,-0.2452624,0.39064834
842,1778415901.7025464,0.9081627,0.5272259,-0.15927759,0.14569137,-0.47403142,0.30925053
843,1778415901.712835,0.93846935,0.5184449,-0.14476454,0.27183503,-0.68829244,0.19257528
844,1778415901.7229607,0.9457869,0.4911872,-0.12951976,0.30390546,-0.8561276,0.101556346
845,1778415901.7332158,0.9409695,0.47710103,-0.114823766,0.2919936,-0.94897914,0.057421334
846,1778415901.743311,0.93224955,0.4663687,-0.10451829,0.2938262,-1.0236574,0.0364992
847,1778415901.753576,0.9327983,0.450819,-0.088846646,0.32513303,-1.0564915,0.03863723
848,1778415901.7637205,0.92901766,0.4416111,-0.061101127,0.37583485,-0.9637926,0.08231409
849,1778415901.7738454,0.92901766,0.4416111,-0.061101127,0.37583485,-0.9637926,0.08231409
850,1778415901.784104,0.9314568,0.43380582,-0.05860098,0.35002577,-0.84788096,0.101098195
851,1778415901.7944314,0.9342008,0.4094141,-0.07402871,0.2771801,-0.7136433,0.13255776
852,1778415901.8045356,0.9169437,0.40642616,-0.11915329,0.17989981,-0.61666846,0.16676621
853,1778415901.8148592,0.9169437,0.40642616,-0.11915329,0.020616703,-0.5204572,0.20647246
854,1778415901.825277,0.91535825,0.4024625,-0.14006914,-0.074830994,-0.48502702,0.2171626
855,1778415901.8354568,0.9235295,0.38685185,-0.14439867,-0.14508049,-0.45921794,0.22159137
856,1778415901.845564,0.92792004,0.3673385,-0.14525238,-0.1957823,-0.43004912,0.22953261
857,1778415901.8557968,0.9230417,0.36788732,-0.14525238,-0.21838433,-0.38041633,0.24449882
858,1778415901.8659008,0.9263955,0.35813063,-0.14470357,-0.19532417,-0.33964106,0.21135938
859,1778415901.8760517,0.9218831,0.33032414,-0.15909465,-0.18219055,-0.3275765,0.1928807
860,1778415901.8861837,0.9149315,0.2991028,-0.17348573,-0.17852537,-0.34330627,0.20372356
861,1778415901.8963563,0.90566254,0.2991028,-0.17153439,-0.18677205,-0.37705657,0.23808473
862,1778415901.9064727,0.90566254,0.2991028,-0.17153439,-0.18677205,-0.37705657,0.23808473
863,1778415901.916621,0.90621144,0.29666364,-0.16470474,-0.18310685,-0.39385536,0.26251933
864,1778415901.926802,0.90621144,0.29666364,-0.16470474,-0.18310685,-0.39385536,0.26251933
865,1778415901.9369311,0.88950306,0.29032183,-0.18501079,-0.08246681,-0.42210788,0.26511553
866,1778415901.9470336,0.88950306,0.29032183,-0.18501079,-0.08246681,-0.42210788,0.26511553
867,1778415901.9572012,0.88889337,0.28977302,-0.20592664,0.06261369,-0.5001459,0.269697
868,1778415901.967381,0.910297,0.26586917,-0.201963,0.0917825,-0.5160284,0.2828306
869,1778415901.9775155,0.9375548,0.23806266,-0.1999507,0.08979719,-0.5027421,0.31215215
870,1778415901.987679,0.95560455,0.240014,-0.19860914,0.04062254,-0.4699081,0.3481932
871,1778415901.9978123,0.95859253,0.25367334,-0.18897444,-0.03176499,-0.42852196,0.364992
872,1778415902.0079374,0.9587145,0.26733267,-0.17879093,-0.112704635,-0.3810272,0.37186423
873,1778415902.018041,0.9621903,0.28050417,-0.17110755,-0.17913623,-0.30466905,0.36163223
874,1778415902.0281584,0.9577388,0.2824555,-0.17891288,-0.1777618,-0.28298333,0.356898
875,1778415902.0382984,0.9577388,0.2824555,-0.17891288,-0.1777618,-0.28298333,0.356898
876,1778415902.0484746,0.9757277,0.27269882,-0.1905599,-0.1244638,-0.2771801,0.34895676
877,1778415902.0586996,1.0406095,0.27117437,-0.17622979,0.043066,-0.24923302,0.3484986
878,1778415902.068929,1.0689038,0.28434587,-0.1788519,0.10873401,-0.20005837,0.33933565
879,1778415902.0790548,1.1020765,0.3081887,-0.17568098,0.15515977,-0.11102476,0.3145956
880,1778415902.089255,1.1089672,0.32916555,-0.17244908,0.14813483,0.0143553335,0.26099217
881,1778415902.099457,1.0943322,0.35203275,-0.18080322,0.08979719,0.14492778,0.18463401
882,1778415902.1095753,1.0782337,0.35544756,-0.18805976,0.029168816,0.23808473,0.1255328
883,1778415902.1197054,1.0606107,0.34764224,-0.20159712,-0.03145956,0.3324634,0.06994407
884,1778415902.1298301,1.0527443,0.3325194,-0.204829,-0.04718934,0.39171734,0.05177083
885,1778415902.139975,1.0385362,0.32471406,-0.21348806,-0.01786781,0.42164972,0.055283304
886,1778415902.150074,1.0331701,0.32715324,-0.22519606,0.045356743,0.42378777,0.06811147
887,1778415902.160319,1.0262794,0.33690992,-0.23641624,0.15821409,0.40026945,0.07422013
888,1778415902.1704302,1.0291454,0.3480691,-0.2534904,0.2695443,0.3585779,0.070554934
889,1778415902.1806986,1.0378654,0.3553256,-0.2686742,0.35140023,0.28817567,0.05009095
890,1778415902.1908154,1.0514028,0.35874045,-0.28233355,0.3930918,0.21685717,0.01282817
891,1778415902.2009878,1.0524395,0.36313096,-0.27995536,0.3911065,0.16615535,-0.026267206
892,1778415902.2111688,1.0598179,0.36898494,-0.26885715,0.364992,0.12889257,-0.07498371
893,1778415902.221295,1.0589032,0.37630245,-0.2508683,0.34025195,0.120493166,-0.11759156
894,1778415902.2314246,1.0454268,0.38368094,-0.2294646,0.31688634,0.14721853,-0.15409076
895,1778415902.2415156,1.0430486,0.36959475,-0.21818347,0.28787026,0.18952094,-0.17088956
896,1778415902.2516944,1.0483538,0.34373957,-0.21074401,0.2761111,0.23426682,-0.16081028
897,1778415902.2620087,1.047866,0.34032473,-0.2122075,0.28496864,0.26190847,-0.15118915
898,1778415902.2722242,1.0581106,0.34032473,-0.21269535,0.30680707,0.2919936,-0.15500705
899,1778415902.282361,1.0737212,0.3413004,-0.2112928,0.3239113,0.32559118,-0.17715092
900,1778415902.2925014,1.0737212,0.34178823,-0.2112928,0.3115413,0.36193767,-0.20998493
901,1778415902.3026211,1.0498784,0.34666657,-0.20543882,0.23014349,0.4082107,-0.26053402
902,1778415902.3129163,1.0143275,0.35648423,-0.2004995,0.107359566,0.43295074,-0.2910773
903,1778415902.3231604,0.9928628,0.3447762,-0.2008044,0.027030786,0.42485678,-0.31597003
904,1778415902.333291,0.9811548,0.32922652,-0.19336495,0.011148291,0.41050145,-0.321926
905,1778415902.3434906,0.9670686,0.307335,-0.17909582,0.03772093,0.3839288,-0.3136793
906,1778415902.3536105,0.97792286,0.28349215,-0.14543532,0.11804971,0.37980548,-0.28389964
907,1778415902.3637304,0.9897529,0.27086946,-0.11817763,0.1572978,0.42424592,-0.26710084
908,1778415902.37383,0.998168,0.26166162,-0.08555377,0.08689558,0.5983425,-0.25137106
909,1778415902.3839602,0.998168,0.26166162,-0.08555377,0.08689558,0.5983425,-0.25137106
910,1778415902.3940654,0.9232856,0.34502012,-0.09256637,-0.16264287,0.6731735,-0.257327
911,1778415902.4041657,0.91987073,0.37721714,-0.10488417,-0.16264287,0.6731735,-0.257327
912,1778415902.4142742,0.91987073,0.37721714,-0.10488417,-0.09621128,0.49556443,-0.30482176
913,1778415902.4244375,0.9399329,0.39477912,-0.09244442,-0.09621128,0.49556443,-0.30482176
914,1778415902.4346843,0.968715,0.392279,-0.08573671,0.08735373,0.39568797,-0.33368513
915,1778415902.444847,1.0087783,0.38886416,-0.07030898,0.26648995,0.35613444,-0.34773505
916,1778415902.4549515,0.9882284,0.424415,-0.093785964,0.45433104,0.44180828,-0.42546764
917,1778415902.465074,0.92974937,0.44594067,-0.10634767,0.2950479,0.4897612,-0.47998735
918,1778415902.4751952,0.9224319,0.44057447,-0.09799352,0.084146686,0.50900346,-0.48395798
919,1778415902.485307,0.9137729,0.4556973,-0.093664,-0.046731193,0.5374087,-0.48380527
920,1778415902.4954243,0.9012111,0.4674663,-0.07713865,-0.13530666,0.5716171,-0.5111415
921,1778415902.5055346,0.9090165,0.45087993,-0.06982114,-0.14263703,0.6102544,-0.5305365
922,1778415902.515656,0.92737114,0.43032995,-0.08482202,-0.10842858,0.6426302,-0.5222898
923,1778415902.525776,0.9223099,0.42154896,-0.12025091,-0.049785517,0.6568329,-0.4897612
924,1778415902.5358858,0.89200324,0.44831884,-0.14317909,-0.021991149,0.6229298,-0.48517972
925,1778415902.5460148,0.89200324,0.44831884,-0.14317909,-0.021991149,0.6229298,-0.48517972
926,1778415902.5561361,0.84090275,0.5082614,-0.15939954,0.042760566,0.39584067,-0.5412266
927,1778415902.5663028,0.83071923,0.509298,-0.14232537,0.058643065,0.2762638,-0.5832236
928,1778415902.576433,0.837183,0.509298,-0.1185435,0.044745877,0.22204952,-0.6064365
929,1778415902.5865526,0.8412076,0.497651,-0.09854234,0.013286319,0.2452624,-0.61468315
930,1778415902.5966837,0.84004897,0.4776498,-0.11640923,-0.054367006,0.27687466,-0.60048056
931,1778415902.6068153,0.81766963,0.48301598,-0.11390909,-0.14630222,0.27382034,-0.5737552
932,1778415902.616983,0.78937536,0.4932605,-0.120189935,-0.21533,0.2489276,-0.55481833
933,1778415902.62727,0.77474034,0.48600397,-0.12153149,-0.26068676,0.13087788,-0.5349652
934,1778415902.6373835,0.7579101,0.5031391,-0.08610259,-0.23472497,0.027030786,-0.5403103
935,1778415902.6475217,0.7635202,0.50905406,-0.043356188,-0.14889841,-0.034972034,-0.5375614
936,1778415902.6576233,0.7626055,0.48960173,-0.031038398,-0.06704246,0.010537425,-0.5015204
937,1778415902.6677306,0.75717837,0.48222327,-0.04268542,-0.062308256,0.08170322,-0.43661594
938,1778415902.6778328,0.740409,0.49191895,-0.080614455,-0.12293663,0.16523905,-0.35888332
939,1778415902.687962,0.7251033,0.5001511,-0.11708001,-0.20708331,0.18982637,-0.3005457
940,1778415902.698098,0.7251033,0.5001511,-0.11708001,-0.20708331,0.18982637,-0.3005457
941,1778415902.7082748,0.7029678,0.52588433,-0.16872935,-0.4448626,0.043982297,-0.21273382
942,1778415902.7183883,0.6880889,0.52307934,-0.1156165,-0.52549684,-0.07742717,-0.20708331
943,1778415902.728552,0.6655266,0.5241769,-0.06250364,-0.5684101,-0.15790866,-0.19822577
944,1778415902.738654,0.66869754,0.485821,0.004817354,-0.54519725,-0.20754147,-0.14844026
945,1778415902.7487898,0.6986993,0.46594182,0.06421106,-0.40530908,-0.17806722,-0.010231993
946,1778415902.7589939,0.7189444,0.4786255,0.099518,-0.20738874,-0.04046982,0.17272215
947,1778415902.7691221,0.7218714,0.5132617,0.093481064,-0.077579886,0.1217149,0.32085696
948,1778415902.7792428,0.72961575,0.55558115,0.065491624,-0.032375857,0.322995,0.47250426
949,1778415902.7895038,0.73479897,0.5993643,0.012195834,-0.12140947,0.5007568,0.569021
950,1778415902.7998252,0.73479897,0.5993643,0.012195834,-0.12140947,0.5007568,0.569021
951,1778415902.810192,0.73479897,0.5993643,0.012195834,-0.12140947,0.5007568,0.569021
952,1778415902.8204815,0.73479897,0.5993643,0.012195834,-0.12140947,0.5007568,0.569021
953,1778415902.8306222,0.68949145,0.6796128,-0.09762765,-0.70280045,0.27962357,0.41554108
954,1778415902.840742,0.6816251,0.62893915,-0.090919934,-0.6776023,0.07070765,0.38683042
955,1778415902.8509967,0.6841862,0.60119367,-0.06500379,-0.55481833,-0.1301143,0.42073345
956,1778415902.8612053,0.7165052,0.6041206,-0.036465544,-0.38026363,-0.25396723,0.48243082
957,1778415902.8714037,0.73053044,0.6515014,0.020610958,-0.2864958,-0.27748555,0.529162
958,1778415902.881639,0.7352258,0.6993701,0.054881252,-0.31642818,-0.19883664,0.5149594
959,1778415902.891855,0.74364096,0.7183956,0.070248,-0.47250426,-0.04734206,0.4775439
960,1778415902.9019775,0.7349819,0.7447386,0.08037054,-0.68798697,0.1142318,0.42852196
961,1778415902.9121,0.7349819,0.7447386,0.08037054,-0.68798697,0.1142318,0.42852196
962,1778415902.9222376,0.7349819,0.7447386,0.08037054,-0.68798697,0.1142318,0.42852196
963,1778415902.9323678,0.7212616,0.7344941,0.07561417,-0.98837996,0.43310347,0.28038713
964,1778415902.9424863,0.714249,0.6930283,0.050612707,-0.93966347,0.47021353,0.27870727
965,1778415902.9526289,0.7276644,0.6656486,0.015671646,-0.8142834,0.4792238,0.32268956
966,1778415902.9629507,0.7367503,0.67388076,-0.010671355,-0.66813385,0.45433104,0.3921755
967,1778415902.9732368,0.74364096,0.7050411,-0.015732625,-0.5699373,0.3921755,0.41065416
968,1778415902.9834356,0.7603492,0.7587028,-0.010305479,-0.5357288,0.32574388,0.36743546
969,1778415902.9935546,0.7630933,0.81480366,0.0219525,-0.550695,0.27382034,0.22800545
970,1778415903.00369,0.7440069,0.8339511,0.08659042,-0.65194595,0.32986724,0.02107485
971,1778415903.0138392,0.763947,0.7774234,0.10878683,-0.7800749,0.4100433,-0.10476339
972,1778415903.0239646,0.77217925,0.7057729,0.12086072,-0.92179567,0.5484043,-0.16920967
973,1778415903.0340877,0.7730939,0.6687586,0.12494631,-0.9783007,0.63194007,-0.16722436
974,1778415903.0442169,0.7704718,0.6258292,0.10671354,-0.99005985,0.78022766,-0.08979719
975,1778415903.0543218,0.7089438,0.6726002,0.07262619,-0.8727737,0.84604836,0.0729984
976,1778415903.064575,0.7089438,0.6726002,0.07262619,-0.8727737,0.84604836,0.0729984
977,1778415903.0746784,0.6565017,0.74479955,0.07530928,-0.8379544,0.68661255,0.13607024
978,1778415903.0848184,0.63211006,0.79400975,0.061467,-0.8037459,0.5177083,0.13179417
979,1778415903.09492,0.62534136,0.81980395,0.053112853,-0.75854194,0.39080104,0.118966006
980,1778415903.1052651,0.62534136,0.81980395,0.053112853,-0.75854194,0.39080104,0.118966006
981,1778415903.1154256,0.6259512,0.8612698,0.06061329,-0.54993147,-0.1133155,0.04642576
982,1778415903.12553,0.6406471,0.86273324,0.0775655,-0.54993147,-0.1133155,0.04642576
983,1778415903.1356328,0.6555871,0.86724573,0.13342242,-0.4465425,-0.25625798,0.03894266
984,1778415903.1457734,0.6555871,0.86724573,0.13342242,-0.3100141,-0.3678936,0.04718934
985,1778415903.1558733,0.67540526,0.8629162,0.18690115,-0.17898351,-0.37950003,0.060628377
986,1778415903.1659853,0.6910769,0.8741364,0.19647488,-0.005192355,-0.2489276,0.12629639
987,1778415903.1760895,0.71052927,0.8829174,0.19147459,0.041080687,-0.2275473,0.13454308
988,1778415903.1862032,0.7197981,0.8931009,0.18458393,0.10995574,-0.22434026,0.099571034
989,1778415903.1963277,0.7372991,0.8935887,0.17580293,0.17715092,-0.24510968,0.049938235
990,1778415903.2064295,0.7596785,0.87651455,0.17775428,0.22861631,-0.2864958,0.0015271631
991,1778415903.2165499,0.7596785,0.87651455,0.17775428,0.22861631,-0.2864958,0.0015271631
992,1778415903.22671,0.7596785,0.87651455,0.17775428,0.22861631,-0.2864958,0.0015271631
993,1778415903.2368524,0.7596785,0.87651455,0.17775428,0.22861631,-0.2864958,0.0015271631
994,1778415903.247022,0.79669285,0.79949784,0.204829,0.28389964,-0.3399465,-0.2706133
995,1778415903.25717,0.7918755,0.7634592,0.22257397,0.28389964,-0.3399465,-0.2706133
996,1778415903.2673342,0.7868142,0.68497896,0.21915914,0.32253686,-0.29550606,-0.31505376
997,1778415903.277483,0.77931374,0.6693683,0.19787739,0.3576616,-0.3005457,-0.31535918
998,1778415903.2876935,0.77882594,0.6664413,0.19306004,0.38545597,-0.3031419,-0.32055154
999,1778415903.2977958,0.7744354,0.67180747,0.1934869,0.3987423,-0.28985557,-0.3378085
