id,timestamp,acc_x,acc_y,acc_z,gyro_x,gyro_y,gyro_z
0,1778415920.2086103,0.8095594,0.7443727,0.43423265,0.13820826,-0.055588737,0.039553523
1,1778415920.2187345,0.78022844,0.67503935,0.3559354,0.0759,0.0025961774,-0.04046982
2,1778415920.2288675,0.73778695,0.6266829,0.2853825,0.0364992,-0.117744274,-0.021991149
3,1778415920.2389734,0.7396773,0.58332676,0.28660208,0.029168816,-0.21426098,0.02687807
4,1778415920.2491012,0.71961516,0.5375314,0.2932488,0.024281893,-0.30940324,0.080634214
5,1778415920.2592492,0.73126215,0.480028,0.3077009,0.025350908,-0.3492622,0.21151209
6,1778415920.2693942,0.75412935,0.4936264,0.2968466,0.06963864,-0.37232238,0.29061913
7,1778415920.2795339,0.7634592,0.5160667,0.3029445,0.13271047,-0.36071593,0.28512135
8,1778415920.2896414,0.7774844,0.5184449,0.28001633,0.18936823,-0.34895676,0.2405282
9,1778415920.2998855,0.7935829,0.53106755,0.2731257,0.23258694,-0.3587306,0.19715676
10,1778415920.3100107,0.80736417,0.5179571,0.3008712,0.3036,-0.34345898,0.13530666
11,1778415920.3202221,0.8288289,0.49508983,0.31940886,0.36071593,-0.29917124,0.110413894
12,1778415920.3303382,0.84175646,0.48197934,0.3670946,0.41813725,-0.22235495,0.11484267
13,1778415920.3404813,0.8565744,0.46112445,0.4133778,0.44944412,-0.06811147,0.11957687
14,1778415920.3506002,0.85419625,0.43386677,0.42667124,0.44700065,0.121256754,0.13087788
15,1778415920.3607216,0.86486757,0.40801162,0.43453756,0.4288274,0.269697,0.16432275
16,1778415920.370826,0.8855395,0.3939864,0.4797841,0.4025602,0.45799622,0.21624629
17,1778415920.3810787,0.91578513,0.3846566,0.47728392,0.408058,0.6931793,0.26175576
18,1778415920.3912208,0.94346964,0.41142645,0.45270932,0.45891252,0.8437576,0.28970283
19,1778415920.401513,0.96712965,0.43856218,0.40435287,0.58184916,0.93462384,0.28619036
20,1778415920.4116411,1.001095,0.44240385,0.3740462,0.768163,0.9120218,0.23900102
21,1778415920.4218028,1.0322554,0.45649004,0.3650823,0.9431759,0.8917105,0.172264
22,1778415920.4321268,1.0693917,0.45209953,0.38587618,1.1213958,0.90392786,0.032223143
23,1778415920.4424908,1.062745,0.47313735,0.4110606,1.1452196,0.9640981,-0.044898596
24,1778415920.4526503,1.0414633,0.50094384,0.4255736,1.1146764,1.0824533,-0.14844026
25,1778415920.462786,1.0227425,0.4750887,0.39904767,0.9726502,1.2110404,-0.23014349
26,1778415920.4729488,1.0135957,0.45691693,0.33300725,0.72418076,1.2232577,-0.22143865
27,1778415920.4830506,1.0178642,0.4744179,0.30953026,0.49556443,1.1122329,-0.20341812
28,1778415920.4931686,1.0457927,0.5455806,0.3100181,0.49556443,1.1122329,-0.20341812
29,1778415920.5033305,1.030243,0.6582701,0.3653262,0.38606682,1.0754282,-0.5804747
30,1778415920.513476,0.9666417,0.66138005,0.41026786,0.3371976,1.2275337,-0.8219192
31,1778415920.5235794,0.8718192,0.6208899,0.37831476,0.269697,1.3388638,-0.84559023
32,1778415920.5337126,0.8718192,0.6208899,0.37831476,0.269697,1.3388638,-0.84559023
33,1778415920.5438266,0.8040713,0.5798509,0.307274,0.15439619,1.3503176,-0.74036866
34,1778415920.5539458,0.7824847,0.5803387,0.27818695,0.089491755,1.2976305,-0.64568454
35,1778415920.5640838,0.7704718,0.64076906,0.28660208,-0.013286319,1.1632402,-0.53221637
36,1778415920.5742166,0.799132,0.67595404,0.34562993,-0.17302758,1.0157162,-0.64828074
37,1778415920.5843487,0.7782161,0.6735759,0.3530694,-0.1928807,0.9940305,-0.68111473
38,1778415920.5944738,0.714066,0.70924866,0.36569205,-0.21975878,0.98822725,-0.6956228
39,1778415920.6046023,0.6251584,0.7194932,0.3314218,-0.2527455,0.9558514,-0.7087564
40,1778415920.6147044,0.57527745,0.7004677,0.3020908,-0.25457808,0.8509353,-0.7113526
41,1778415920.6248531,0.5278967,0.6639412,0.2970905,-0.21502456,0.6974554,-0.66798115
42,1778415920.6349566,0.49862665,0.63326865,0.30861557,-0.14614952,0.53801954,-0.59421915
43,1778415920.645179,0.500761,0.64259845,0.3386783,-0.106137834,0.45448375,-0.5519168
44,1778415920.6552904,0.500761,0.64259845,0.3386783,-0.106137834,0.45448375,-0.5519168
45,1778415920.665476,0.4974071,0.6943698,0.41673166,-0.05421429,0.40240747,-0.5390886
46,1778415920.6756003,0.46331972,0.7321159,0.49637043,0.044898596,0.6032294,-0.6976081
47,1778415920.685705,0.43941587,0.7311402,0.4999072,0.06001751,0.7165449,-0.7098254
48,1778415920.695946,0.42551264,0.7315671,0.44984335,0.11911872,0.8596401,-0.69913524
49,1778415920.70606,0.43600106,0.74608016,0.403987,0.1873829,0.8810204,-0.6889033
50,1778415920.7163413,0.44856274,0.77181333,0.36630186,0.24251351,0.8228355,-0.7237226
51,1778415920.7264752,0.4376475,0.77224016,0.33233646,0.31581733,0.6728681,-0.8151997
52,1778415920.7366078,0.4133778,0.7674228,0.34995946,0.37003163,0.4868596,-0.86742866
53,1778415920.7467144,0.40575537,0.7821188,0.38538834,0.40851614,0.40332377,-0.853226
54,1778415920.7568626,0.3814247,0.76315427,0.39727926,0.40851614,0.40332377,-0.853226
55,1778415920.7670848,0.3814247,0.76315427,0.39727926,0.4259258,0.3924809,-0.80939645
56,1778415920.7772145,0.31690875,0.7144319,0.3808149,0.43035457,0.3538437,-0.70554936
57,1778415920.7873476,0.30629835,0.70327276,0.40179175,0.5164866,0.27870727,-0.41157046
58,1778415920.7976332,0.29794422,0.73638445,0.3802661,0.52122074,0.26908615,-0.29657507
59,1778415920.8078403,0.32233587,0.7714474,0.37215585,0.5329799,0.2593123,-0.2049453
60,1778415920.8180494,0.34227607,0.8084618,0.34995946,0.55665094,0.2556471,-0.15149458
61,1778415920.8283467,0.36282605,0.8386465,0.35020337,0.5844453,0.2350304,-0.13698652
62,1778415920.8384657,0.3650823,0.86389184,0.31453055,0.6070473,0.22770002,-0.1873829
63,1778415920.8486128,0.3485569,0.86590415,0.3126402,0.59895337,0.20234911,-0.24984388
64,1778415920.8587406,0.33056808,0.8454762,0.33471465,0.54137933,0.20387627,-0.30176744
65,1778415920.8688662,0.2906877,0.8075471,0.36428955,0.38621956,0.2565634,-0.32589662
66,1778415920.8789947,0.28038222,0.7602883,0.37044844,0.17241672,0.30955598,-0.27107146
67,1778415920.8891451,0.2822116,0.7358966,0.35550857,-0.010231993,0.3733914,-0.13209961
68,1778415920.899375,0.2909316,0.76016635,0.33392194,-0.076816306,0.36896262,0.009315695
69,1778415920.9095626,0.31678677,0.78407013,0.3273362,-0.021227567,0.344528,0.122478485
70,1778415920.9196913,0.3269093,0.8161452,0.29404154,0.0786489,0.3222314,0.17654006
71,1778415920.929911,0.33636108,0.85157406,0.2344649,0.23579398,0.2237294,0.18203785
72,1778415920.940126,0.33825144,0.8700507,0.20952442,0.29917124,0.10995574,0.15928312
73,1778415920.9502664,0.34111744,0.8929789,0.19379179,0.2771801,-0.016493361,0.082161374
74,1778415920.960388,0.32538486,0.8778561,0.17836407,0.22464569,-0.14767668,0.004276057
75,1778415920.9705033,0.32038453,0.83882946,0.16793664,0.20525073,-0.3454443,0.0053450707
76,1778415920.9808137,0.31898203,0.8378538,0.17964463,0.24724771,-0.52656585,0.058490347
77,1778415920.9909506,0.31812832,0.8602941,0.19263318,0.3155119,-0.67164636,0.06261369
78,1778415921.0012336,0.30312744,0.8983451,0.20025559,0.3921755,-0.7974846,0.041996986
79,1778415921.011485,0.2828214,0.9349326,0.21178065,0.41386122,-0.90133166,-0.037873644
80,1778415921.02174,0.26550332,0.94042075,0.2526367,0.36071593,-0.9457721,-0.11942416
81,1778415921.0318685,0.24227023,0.90493083,0.29672462,0.20616703,-0.8859073,-0.20341812
82,1778415921.0422454,0.22574489,0.88060015,0.31105474,0.062308256,-0.79213953,-0.19807306
83,1778415921.052369,0.21153674,0.8445615,0.32154313,-0.106137834,-0.6574437,-0.13881913
84,1778415921.0624847,0.21495157,0.82553595,0.32361645,-0.18387043,-0.5725334,-0.07544186
85,1778415921.0726655,0.21732976,0.81626713,0.32117727,-0.26419923,-0.43692136,0.058948494
86,1778415921.0828702,0.2206836,0.8484031,0.2961758,-0.27076602,-0.34040466,0.19135354
87,1778415921.0930061,0.22031774,0.91371185,0.2880046,-0.26145032,-0.30665436,0.26343563
88,1778415921.103304,0.22824502,0.9917042,0.28849244,-0.2454151,-0.2910773,0.15317446
89,1778415921.1134837,0.22592781,1.0453049,0.28184572,-0.2454151,-0.2910773,0.15317446
90,1778415921.1235883,0.20970736,1.0515857,0.26190552,-0.2443461,-0.29718593,0.01863139
91,1778415921.133687,0.19397473,0.9848135,0.2628812,-0.32421672,-0.36545014,-0.050549097
92,1778415921.1438131,0.19159654,0.9731666,0.27562585,-0.37232238,-0.3555236,-0.0096211275
93,1778415921.1539307,0.19159654,0.9731666,0.27562585,-0.37232238,-0.3555236,-0.0096211275
94,1778415921.164194,0.19366984,0.96542215,0.2950782,-0.39721513,-0.32528573,0.038331795
95,1778415921.1743271,0.18787682,0.96542215,0.304347,-0.40332377,-0.25885415,0.10705414
96,1778415921.1844323,0.1723881,1.0190839,0.30995712,-0.4334089,-0.14294247,0.19685133
97,1778415921.1945765,0.16805859,1.0478051,0.30196884,-0.46960264,-0.10888673,0.18387043
98,1778415921.2047014,0.17135146,1.059452,0.27660152,-0.49648073,-0.100334615,0.15836681
99,1778415921.2148082,0.16458277,1.0765262,0.2804432,-0.48731774,-0.12935072,0.13500121
100,1778415921.2249165,0.15287478,1.086283,0.27800402,-0.44974953,-0.123547494,0.12370021
101,1778415921.235054,0.1167751,1.0940882,0.27172315,-0.36728272,-0.12522738,0.11911872
102,1778415921.2451563,0.07097975,1.0951248,0.27580878,-0.3043636,-0.16417004,0.13439035
103,1778415921.255286,0.048600398,1.0941492,0.28465074,-0.27382034,-0.19074267,0.16707164
104,1778415921.2655697,0.048600398,1.0941492,0.28465074,-0.27382034,-0.19074267,0.16707164
105,1778415921.2758374,0.035124,1.1010399,0.30459094,-0.23105977,-0.21273382,0.20326541
106,1778415921.2859485,0.046832,1.1142114,0.3059325,-0.009468411,-0.25366178,0.32085696
107,1778415921.2961051,0.075675145,1.1395177,0.31538427,0.14737125,-0.26542094,0.3559817
108,1778415921.306225,0.09085896,1.1600068,0.31715265,0.26389378,-0.2564107,0.35246924
109,1778415921.3165135,0.112872444,1.1901914,0.31739658,0.3801109,-0.22922719,0.3145956
110,1778415921.3266172,0.12506826,1.2062899,0.31142062,0.43661594,-0.21151209,0.2602286
111,1778415921.3367436,0.17513217,1.1857399,0.29965162,0.46288314,-0.19120082,0.20372356
112,1778415921.3468597,0.22373258,1.1642143,0.27971146,0.46639562,-0.17073683,0.17684549
113,1778415921.3569896,0.2543441,1.1378713,0.2734306,0.46746463,-0.17195857,0.16447547
114,1778415921.367182,0.2543441,1.1378713,0.2734306,0.46746463,-0.17195857,0.16447547
115,1778415921.3772957,0.33648303,1.0817095,0.2505634,0.5477934,-0.29535335,0.14278975
116,1778415921.3874125,0.36404565,1.06555,0.22330572,0.59941155,-0.43676865,0.17379116
117,1778415921.3974924,0.3899008,1.0294503,0.23513566,0.6275113,-0.57925296,0.14767668
118,1778415921.4076624,0.4173414,1.0090222,0.2687352,0.66767573,-0.6795876,0.10430524
119,1778415921.4177763,0.44508693,0.99005777,0.27940655,0.7163922,-0.71959925,0.13805555
120,1778415921.4279106,0.45539245,0.9685931,0.2994687,0.7493789,-0.7150178,0.16707164
121,1778415921.4380581,0.44472107,0.92139524,0.3187381,0.75686204,-0.6462954,0.15241088
122,1778415921.4482,0.41502422,0.88925916,0.34581286,0.72036284,-0.48930305,0.16890424
123,1778415921.4583204,0.43429363,0.9461528,0.28312626,0.6774496,-0.17913623,0.17715092
124,1778415921.4685903,0.3963646,0.84035397,0.24598998,0.58093286,-0.03863723,0.26633725
125,1778415921.4787018,0.3963646,0.84035397,0.24598998,0.37033707,0.07467828,0.376293
126,1778415921.488892,0.45588025,0.83480483,0.16403395,0.13332134,0.019394971,0.48380527
127,1778415921.499064,0.46149033,0.89236915,0.18751094,0.007788532,-0.062002823,0.5853616
128,1778415921.509281,0.48338187,0.8621235,0.19732858,-0.07880162,-0.19532417,0.6177375
129,1778415921.5194187,0.47039333,0.84029293,0.23159887,-0.016035212,-0.19456059,0.4642576
130,1778415921.529567,0.456673,0.8324875,0.22196417,0.11713341,-0.12889257,0.409127
131,1778415921.5397918,0.44124526,0.7894973,0.18580353,0.26358834,-0.10323623,0.48609602
132,1778415921.5499291,0.40642616,0.77242315,0.15635058,0.31322116,-0.05513059,0.56505036
133,1778415921.560204,0.3734974,0.78839964,0.095066525,0.25610524,-0.0065668016,0.65270954
134,1778415921.5703206,0.38209546,0.80394936,0.05408852,0.14095716,-0.06994407,0.68676525
135,1778415921.5804844,0.44563577,0.8735875,0.058783915,-0.093462385,-0.2302962,0.6337727
136,1778415921.5906796,0.47014937,0.91895604,0.07543123,-0.2958115,-0.3726278,0.4998405
137,1778415921.6008456,0.48258913,0.91316307,0.114823766,-0.5006041,-0.5525276,0.2678644
138,1778415921.6110146,0.47838157,0.8202307,0.18934031,-0.6094908,-0.68707067,0.1207986
139,1778415921.6211436,0.47563753,0.71552956,0.26001516,-0.57925296,-0.7318166,0.1498147
140,1778415921.6312678,0.46521008,0.673271,0.32989728,-0.46211955,-0.65041876,0.29061913
141,1778415921.6414616,0.46155134,0.67388076,0.37904653,-0.2667954,-0.41386122,0.50808716
142,1778415921.65178,0.46423438,0.73193294,0.3971573,-0.16737708,-0.068264194,0.6629415
143,1778415921.6619034,0.46228305,0.775777,0.37983924,-0.20952678,0.15515977,0.6979135
144,1778415921.6723645,0.45356306,0.79882705,0.20562175,-1.0587822,0.41065416,0.64812803
145,1778415921.6825218,0.45356306,0.79882705,0.20562175,-1.0587822,0.41065416,0.64812803
146,1778415921.6928055,0.500761,0.7337623,0.120189935,-1.3799446,0.21700987,0.5531385
147,1778415921.7029164,0.5060051,0.6884548,0.116592176,-1.3451253,-0.028099801,0.54504454
148,1778415921.713024,0.48826018,0.6656486,0.18098617,-0.550695,-0.76083267,0.5850562
149,1778415921.7231524,0.48826018,0.6656486,0.18098617,-0.550695,-0.76083267,0.5850562
150,1778415921.7334595,0.5119811,0.66089225,0.24855109,-0.039095376,-1.0590876,0.6123924
151,1778415921.7436707,0.5277137,0.6619289,0.2625763,0.28420505,-1.2032518,0.63224554
152,1778415921.753782,0.54100716,0.68680835,0.27989438,0.28420505,-1.2032518,0.63224554
153,1778415921.7639358,0.56594765,0.68095434,0.29782224,0.1375974,-1.1264355,0.61178154
154,1778415921.774054,0.58820504,0.64583033,0.29019985,-0.16615535,-0.97402465,0.5893322
155,1778415921.7841833,0.6041816,0.60046184,0.2821506,-0.5748242,-0.8426886,0.6560693
156,1778415921.7942944,0.61216986,0.59174186,0.322031,-0.55878896,-0.8391761,0.6779077
157,1778415921.8044136,0.6363176,0.55625194,0.38587618,-0.44409904,-0.76144356,0.70264775
158,1778415921.814531,0.67473453,0.5216158,0.37721714,-0.49495357,-0.38606682,0.7367035
159,1778415921.8246582,0.63765913,0.60832816,0.34617874,-0.60903263,-0.48670688,0.7817548
160,1778415921.8347602,0.6598556,0.5363118,0.41319484,-0.61911196,-0.3623958,0.79061234
161,1778415921.8451364,0.6598556,0.5363118,0.41319484,-0.61911196,-0.3623958,0.79061234
162,1778415921.8553061,0.6755272,0.4816135,0.36672872,-0.63361996,-0.20311269,0.8338311
163,1778415921.8654885,0.6678439,0.45423386,0.30806676,-0.63270366,-0.1910481,0.91583973
164,1778415921.875594,0.71985906,0.48661375,0.17635176,-0.5290093,-0.56306505,1.0647382
165,1778415921.8857102,0.752361,0.4996633,0.15037462,-0.35934147,-0.9112582,1.0196868
166,1778415921.8960207,0.7778503,0.51137125,0.16238752,-0.08582657,-1.2735013,0.9222538
167,1778415921.906138,0.7926682,0.5050904,0.20171909,0.24236079,-1.5683966,0.7997753
168,1778415921.916325,0.83815867,0.48082075,0.24696562,0.5326745,-1.7496707,0.6986771
169,1778415921.9264364,0.87724626,0.4856381,0.2628202,0.7098254,-1.809841,0.6197228
170,1778415921.9365993,0.9004794,0.45929506,0.240014,0.8190176,-1.8996382,0.54153204
171,1778415921.9467154,0.9203586,0.37691224,0.25019753,0.8176431,-1.9961549,0.5890268
172,1778415921.9568202,0.8622454,0.38471758,0.22897679,0.8213083,-1.9405662,0.6771441
173,1778415921.96695,0.86944103,0.34861788,0.22672056,0.84482664,-1.9045252,0.69898254
174,1778415921.9771202,0.86944103,0.34861788,0.22672056,0.84482664,-1.9045252,0.69898254
175,1778415921.98725,0.9240783,0.34617874,0.22848894,0.9842566,-1.5181528,0.8352055
176,1778415921.9973722,0.92828584,0.3743511,0.19177948,1.0395399,-1.1192578,0.9062186
177,1778415922.007494,0.9468845,0.38880318,0.11336028,0.94989544,-0.8425359,0.9993755
178,1778415922.0176387,0.9407256,0.39551088,0.054942228,0.7480045,-0.7870999,1.0418307
179,1778415922.0277486,0.9439575,0.39740124,0.01603752,0.44211373,-0.8481864,1.0581713
180,1778415922.0379908,0.98182553,0.37002158,0.0019513334,0.21380283,-0.9240864,1.073901
181,1778415922.048119,1.006705,0.3471544,0.013659334,0.13530666,-0.9405798,1.1210904
182,1778415922.058235,1.0355482,0.34520307,0.033477563,0.09132435,-0.8859073,1.3040446
183,1778415922.0686336,1.0355482,0.34520307,0.033477563,0.09132435,-0.8859073,1.3040446
184,1778415922.0787542,1.0606107,0.32916555,0.06951625,0.03970624,-0.45875978,1.2255484
185,1778415922.0889726,1.0446951,0.36221626,0.0017683958,0.086437434,-0.269697,1.1788172
186,1778415922.0992613,1.0259135,0.35776478,-0.04049017,0.14095716,-0.23976462,1.1600331
187,1778415922.1093893,1.0023755,0.35819164,-0.07396773,0.18234327,-0.27015516,1.0714576
188,1778415922.11951,0.99097246,0.3527645,-0.10207913,0.21380283,-0.3717115,0.9999864
189,1778415922.1296196,0.9796913,0.33617815,-0.11073817,0.2666427,-0.52763486,0.9149234
190,1778415922.1398997,0.98072803,0.30892047,-0.08963938,0.31474832,-0.67149365,0.8358164
191,1778415922.1500468,1.0110346,0.2909316,-0.06726002,0.33582318,-0.7414377,0.79152864
192,1778415922.1602051,1.044756,0.27629662,-0.04396598,0.34009922,-0.76083267,0.75594574
193,1778415922.1703084,1.088783,0.2651374,-0.007561417,0.31581733,-0.700357,0.72082096
194,1778415922.1804397,1.129944,0.25446606,0.04049017,0.25595254,-0.5155703,0.69226307
195,1778415922.1905732,1.1276877,0.26477155,0.05939371,0.17608191,-0.23167065,0.66416323
196,1778415922.2007158,1.100613,0.26519838,0.011342125,0.08231409,-0.011759156,0.61407226
197,1778415922.2108462,1.0744529,0.27678445,-0.04701494,-0.0067195175,0.046731193,0.5403103
198,1778415922.2209806,1.0556104,0.2800773,-0.10872585,-0.09789115,-0.022907447,0.42730024
199,1778415922.2311003,1.0598179,0.24836816,-0.12945877,-0.1386664,-0.17455475,0.32604933
200,1778415922.241216,1.0826242,0.21373199,-0.13128816,-0.106137834,-0.34009922,0.27656925
201,1778415922.2513332,1.1056132,0.17622979,-0.10488417,-0.03894266,-0.42119157,0.26099217
202,1778415922.261469,1.1008569,0.15872878,-0.07799236,0.03970624,-0.46028697,0.25167647
203,1778415922.2715933,1.0853683,0.14805742,-0.053051874,0.11377365,-0.45707992,0.26068676
204,1778415922.2817314,1.0747578,0.14177656,-0.034026377,0.10445796,-0.42317688,0.2864958
205,1778415922.2918494,1.0617692,0.16232654,-0.0078053335,0.034972034,-0.3239113,0.30573806
206,1778415922.3019648,1.0606717,0.19446257,-0.038172957,-0.011453724,-0.1704314,0.301462
207,1778415922.3120935,1.0721357,0.20312162,-0.089822315,-0.020922136,-0.09560041,0.28695396
208,1778415922.3222098,1.0839658,0.20641449,-0.14921603,-0.015271631,-0.09697486,0.25152376
209,1778415922.3325038,1.1023813,0.20732918,-0.17122951,0.0096211275,-0.14889841,0.22540927
210,1778415922.3428535,1.1111623,0.20531686,-0.17025384,0.028710667,-0.19364429,0.21410827
211,1778415922.3532162,1.126834,0.21995185,-0.15970443,0.037873644,-0.24678956,0.19440787
212,1778415922.36347,1.127017,0.23659918,-0.14128873,0.036193766,-0.25885415,0.1553125
213,1778415922.3736036,1.1316514,0.2595883,-0.10451829,0.019700404,-0.22983804,0.061239243
214,1778415922.3838205,1.1200653,0.2625763,-0.07628494,0.0067195175,-0.1611157,-0.06093381
215,1778415922.393941,1.1103088,0.23184279,-0.072138354,-0.0143553335,-0.084910266,-0.15714508
216,1778415922.4041195,1.106345,0.16610725,-0.053234816,-0.03756821,-0.020922136,-0.20463985
217,1778415922.4142487,1.106345,0.16610725,-0.053234816,-0.03970624,0.038179077,-0.21670444
218,1778415922.4243536,1.0805509,0.1378739,-0.04323423,-0.0106901415,0.20082195,-0.19715676
219,1778415922.4347298,1.0746359,0.11494574,-0.042136606,-0.007483099,0.25152376,-0.15683965
220,1778415922.444833,1.0658549,0.13250773,-0.04610025,-0.002443461,0.26832256,-0.13729197
221,1778415922.4553814,1.0658549,0.13250773,-0.04610025,-0.002443461,0.26832256,-0.13729197
222,1778415922.4655302,1.0649402,0.14909407,-0.043783043,0.008399397,0.26343563,-0.14095716
223,1778415922.4756663,1.0612204,0.16915621,-0.015183813,0.07192938,0.23411411,-0.19792034
224,1778415922.4857852,1.0725626,0.13458103,0.020976834,0.25244007,0.17287487,-0.31245756
225,1778415922.4959338,1.0256087,0.080492504,0.0049393126,0.364992,0.19868392,-0.35628715
226,1778415922.5061028,0.97987425,0.029270003,-0.049515083,0.47051895,0.17165314,-0.3379612
227,1778415922.5162325,0.9231636,0.012195834,-0.07012604,0.5852089,-0.0038179078,-0.29764408
228,1778415922.5263498,0.91316307,-0.0018293752,-0.021830542,0.68783426,-0.16233744,-0.25366178
229,1778415922.5364711,0.9557874,-0.041282896,0.026891813,0.74265945,-0.2350304,-0.18585575
230,1778415922.546596,0.99121636,-0.03823394,0.08652944,0.7499898,-0.24220806,-0.05375614
231,1778415922.5567284,0.9815816,-0.018720604,0.10104248,0.7273878,-0.16982053,0.06765333
232,1778415922.5668402,0.99847287,0.0131715005,-0.02420873,0.75243324,-0.102319926,0.23273966
233,1778415922.577121,0.99847287,0.0131715005,-0.02420873,0.75243324,-0.102319926,0.23273966
234,1778415922.5873148,1.1711658,0.12592198,-0.12622687,0.9062186,-0.32146785,0.33124167
235,1778415922.597456,1.229462,0.19123067,-0.10445731,0.97417736,-0.3182608,0.20937407
236,1778415922.607583,1.273367,0.23281845,-0.02414775,0.9460775,-0.22892176,0.023823744
237,1778415922.6177893,1.2609272,0.21050009,0.026647896,0.86529064,0.042913284,-0.2171626
238,1778415922.62798,1.2387918,0.17732742,0.007927292,0.7819075,0.3315471,-0.34437528
239,1778415922.6380954,1.2466581,0.09579827,-0.04408794,0.5899431,0.5919284,-0.4082107
240,1778415922.6482027,1.2517194,0.07719963,-0.0834195,0.3471242,0.7657196,-0.40790528
241,1778415922.65841,1.2448287,0.11665315,-0.11866546,0.21746802,0.8219192,-0.4372268
242,1778415922.668603,1.1897036,0.21507353,-0.16183871,0.13958271,0.72326446,-0.6409504
243,1778415922.6787353,1.1632996,0.22037871,-0.18513274,0.35430184,0.51343226,-0.88315845
244,1778415922.6888428,1.1807396,0.1662902,-0.1741565,0.7322747,0.32436943,-1.0609202
245,1778415922.6989622,1.1975088,0.11616532,-0.119946025,1.0332786,0.28893927,-1.1484267
246,1778415922.7091546,1.1781175,0.11134796,-0.10037171,1.1087204,0.3633121,-1.1662945
247,1778415922.7192762,1.121041,0.15281379,-0.12281204,1.0019717,0.4989242,-1.1282681
248,1778415922.7293968,1.068355,0.23416002,-0.163912,0.8364272,0.5589417,-1.102001
249,1778415922.739525,0.99280185,0.3418492,-0.21196358,0.6656904,0.49953505,-1.1505647
250,1778415922.749755,0.9384084,0.38575423,-0.19452354,0.65836,0.4344779,-1.2362386
251,1778415922.759958,0.93029815,0.339593,-0.13830076,0.70463306,0.40759984,-1.324814
252,1778415922.7700746,0.9352985,0.30312744,-0.10110346,0.70738196,0.46303585,-1.329701
253,1778415922.7802036,0.94139636,0.28660208,-0.057747275,0.49189925,0.6488916,-1.2684617
254,1778415922.79033,0.9226148,0.3033104,-0.012561709,0.13454308,0.86422163,-1.2218832
255,1778415922.8005915,0.88877136,0.31312802,0.025977125,-0.22510384,1.0929906,-1.176221
256,1778415922.8107424,0.85419625,0.32245782,0.030428605,-0.3764457,1.2313516,-1.1071932
257,1778415922.8211477,0.8228529,0.34142238,0.00073175,-0.3324634,1.3011429,-0.9999864
258,1778415922.8314886,0.7774844,0.36953375,-0.10872585,-0.07849618,1.2020301,-0.8949176
259,1778415922.841673,0.7753501,0.3825833,-0.15452121,0.15271631,1.0065532,-0.8240572
260,1778415922.8517964,0.7891314,0.4483798,-0.15348457,0.35033122,0.7160868,-0.788627
261,1778415922.8619397,0.7721182,0.47521064,-0.15214302,0.4184427,0.54809886,-0.8005389
262,1778415922.8720686,0.7775454,0.48691866,-0.15025267,0.41996986,0.39843684,-0.7958047
263,1778415922.8821993,0.7605932,0.5234452,-0.14506944,0.3903429,0.25396723,-0.7689266
264,1778415922.8923228,0.7440678,0.5683259,-0.15110639,0.32559118,0.09392053,-0.7096727
265,1778415922.902471,0.7337623,0.5683259,-0.16031423,0.32559118,0.09392053,-0.7096727
266,1778415922.912601,0.74888515,0.5882661,-0.163912,0.3379612,-0.0013744468,-0.6377433
267,1778415922.9227645,0.7754111,0.626317,-0.14915505,0.41370848,-0.0693332,-0.5505423
268,1778415922.9330585,0.79992473,0.6560749,-0.12708059,0.48181996,-0.10354166,-0.5047274
269,1778415922.9431663,0.76937413,0.6946137,-0.11403105,0.4978552,-0.0842994,-0.49754974
270,1778415922.9535582,0.69882125,0.6991262,-0.09140777,0.29535335,-0.0012217305,-0.52595496
271,1778415922.9636781,0.69882125,0.6991262,-0.09140777,0.29535335,-0.0012217305,-0.52595496
272,1778415922.9738379,0.6780274,0.6957723,-0.06945527,0.16355917,0.052687127,-0.52458054
273,1778415922.983957,0.6533918,0.69290626,-0.019696271,-0.1085813,0.17104226,-0.50335294
274,1778415922.9940605,0.6186337,0.66339236,0.047746688,-0.49861875,0.50976706,-0.4120286
275,1778415923.0043325,0.5957664,0.65461135,0.059027832,-0.49861875,0.50976706,-0.4120286
276,1778415923.0144267,0.5907662,0.62826836,0.04317325,-0.5028948,0.77763146,-0.26847526
277,1778415923.0245707,0.5907662,0.62826836,0.04317325,-0.5028948,0.77763146,-0.26847526
278,1778415923.034831,0.5774118,0.61509687,0.018476687,-0.4981606,0.82833326,-0.17913623
279,1778415923.0449462,0.5232622,0.64772075,-0.0024391667,-0.50228393,0.8741482,-0.012675454
280,1778415923.0550811,0.48807728,0.64869636,-0.02128173,-0.45433104,0.88239485,0.039553523
281,1778415923.0653138,0.4786255,0.6457084,-0.052807957,-0.43233988,0.852157,0.07223482
282,1778415923.0757227,0.4677712,0.6490623,-0.08293167,-0.44226643,0.7509061,0.12232576
283,1778415923.0858133,0.46667355,0.6349151,-0.09500554,-0.44226643,0.7509061,0.12232576
284,1778415923.0959296,0.4486847,0.65345275,-0.101408355,-0.5151121,0.48838675,0.257327
285,1778415923.1060464,0.4613074,0.6510136,-0.10677453,-0.51893,0.37018433,0.32085696
286,1778415923.1161876,0.4897237,0.64034224,-0.0693943,-0.50885075,0.25686884,0.4184427
287,1778415923.1263087,0.4973461,0.66918534,-0.025306353,-0.47036624,0.26267207,0.5012149
288,1778415923.1364179,0.5116762,0.7183956,-0.008171208,-0.4280638,0.3287982,0.5707009
289,1778415923.1465309,0.53125054,0.75254387,-0.008902958,-0.43692136,0.45662177,0.5881105
290,1778415923.156831,0.56143516,0.7812041,-0.023781875,-0.52106804,0.5717699,0.58291817
291,1778415923.166937,0.5780215,0.7938878,-0.032197,-0.7330383,0.6693556,0.55955255
292,1778415923.1770568,0.5868635,0.8216333,-0.031892106,-0.93233305,0.6765333,0.52122074
293,1778415923.1871774,0.576741,0.86456263,-0.022867188,-1.1068878,0.63514715,0.44333544
294,1778415923.197337,0.5704601,0.86944103,-0.010732334,-1.1308643,0.5749769,0.38728857
295,1778415923.2074687,0.5728993,0.8455981,-0.00085370836,-1.0464121,0.49739704,0.38866302
296,1778415923.2175958,0.57204556,0.8485251,0.016159479,-0.9101892,0.4363105,0.4605924
297,1778415923.2277112,0.5740579,0.8734046,0.01841571,-0.7993172,0.37659842,0.5352707
298,1778415923.237837,0.57619214,0.92950547,0.027806502,-0.6817256,0.2843578,0.5902485
299,1778415923.2479682,0.5817413,0.98993576,0.043478146,-0.6239988,0.18875736,0.5859725
300,1778415923.2581046,0.6006448,1.0986617,0.07049192,-0.58184916,0.049785517,0.52290064
301,1778415923.2683723,0.6125358,1.1298829,0.08579769,-0.56092703,0.0025961774,0.45769078
302,1778415923.2785456,0.64583033,1.1377493,0.11433593,-0.50640726,-0.04352415,0.3481932
303,1778415923.2886946,0.6771127,1.1084794,0.1387276,-0.41996986,-0.04886922,0.26419923
304,1778415923.2988672,0.7058948,1.0719528,0.15635058,-0.30772337,-0.024129177,0.20189096
305,1778415923.3089929,0.7302255,1.0392679,0.16177773,-0.1965459,-0.0067195175,0.13836098
306,1778415923.3191319,0.75254387,1.0110346,0.16336319,-0.07574729,0.009468411,0.083383106
307,1778415923.3293655,0.75980043,1.007071,0.14580119,0.019547688,0.0125227375,0.020005837
308,1778415923.339524,0.77565503,0.9811548,0.12061679,0.12140947,-0.03145956,-0.066737026
309,1778415923.349646,0.7819359,0.9645685,0.1197021,0.16768251,-0.08353582,-0.14920384
310,1778415923.3599362,0.78632635,0.9504823,0.12512925,0.20112738,-0.13439035,-0.28909197
311,1778415923.3700738,0.7771185,0.9324324,0.13452004,0.1956296,-0.13927728,-0.35888332
312,1778415923.3802423,0.76248354,0.8984061,0.14744763,0.15821409,-0.1366811,-0.462425
313,1778415923.3903823,0.74394584,0.8720631,0.1510454,0.11255192,-0.11591168,-0.54275376
314,1778415923.4005103,0.7271766,0.7969977,0.14622805,0.043982297,-0.09392053,-0.62888575
315,1778415923.4106138,0.7254692,0.7068095,0.13945936,0.0050396384,-0.09605856,-0.63697976
316,1778415923.4208045,0.72729856,0.65955067,0.1348859,-0.001985312,-0.117744274,-0.60032785
317,1778415923.430938,0.7296767,0.64589137,0.13061738,0.039553523,-0.1601994,-0.54076844
318,1778415923.441065,0.72778636,0.65759933,0.13342242,0.14294247,-0.19929479,-0.49541172
319,1778415923.4511883,0.7175419,0.67223436,0.12512925,0.24495697,-0.21670444,-0.463494
320,1778415923.4613984,0.6999189,0.70876086,0.10165227,0.36651915,-0.2499966,-0.419359
321,1778415923.4715707,0.69156474,0.7496169,0.07268717,0.39568797,-0.2863431,-0.40393466
322,1778415923.4817822,0.7017483,0.8041323,0.038294915,0.38560867,-0.3368922,-0.4025602
323,1778415923.4918933,0.7017483,0.8041323,0.038294915,0.35124752,-0.40424007,-0.41218132
324,1778415923.5020485,0.71577346,0.81724274,0.016769271,0.32498032,-0.5018258,-0.42302418
325,1778415923.5121837,0.7260789,0.82992643,0.022989146,0.3387248,-0.59712076,-0.44776422
326,1778415923.5223682,0.7241276,0.82846296,0.030306645,0.50579643,-0.6209445,-0.47036624
327,1778415923.5325363,0.7149198,0.8216943,0.03866079,0.50579643,-0.6209445,-0.47036624
328,1778415923.5426755,0.7002848,0.8104741,0.039758418,0.61193424,-0.56489766,-0.4456262
329,1778415923.5528064,0.6876011,0.82852393,0.030428605,0.6598872,-0.5193882,-0.41416663
330,1778415923.5628955,0.65595293,0.8728558,0.024452647,0.6052147,-0.4972443,-0.43203443
331,1778415923.5730531,0.6369884,0.8938326,0.017562,0.6052147,-0.4972443,-0.43203443
332,1778415923.5832038,0.65003794,0.8738315,0.0059759584,0.5004513,-0.5172501,-0.46639562
333,1778415923.593351,0.68016165,0.85376936,-0.008110229,0.39446622,-0.58062744,-0.47647488
334,1778415923.6034563,0.6880889,0.8357805,0.025001459,0.36575556,-0.65041876,-0.51175237
335,1778415923.6135511,0.67406374,0.8178526,0.054881252,0.36575556,-0.65041876,-0.51175237
336,1778415923.6236725,0.6361347,0.78675324,0.08098034,0.4445572,-0.40485093,-0.5342017
337,1778415923.6338084,0.6361347,0.78675324,0.08098034,0.4445572,-0.40485093,-0.5342017
338,1778415923.6439116,0.564911,0.728823,0.096651986,0.34697145,-0.029168816,-0.45066583
339,1778415923.6540234,0.564911,0.728823,0.096651986,0.34697145,-0.029168816,-0.45066583
340,1778415923.6641288,0.63387847,0.70040673,0.06250364,0.09758572,0.124311075,-0.24984388
341,1778415923.6744826,0.63387847,0.70040673,0.06250364,0.09758572,0.124311075,-0.24984388
342,1778415923.6846578,0.65387964,0.75888574,0.043600105,0.09514226,0.07849618,-0.21197024
343,1778415923.694921,0.6642461,0.8017541,0.046710044,0.3297145,-0.06154467,-0.33307427
344,1778415923.7050414,0.6476597,0.7788869,0.047868647,0.41538838,-0.0693332,-0.37064248
345,1778415923.7151701,0.6217436,0.74229944,0.047746688,0.4288274,-0.06093381,-0.36957347
346,1778415923.7253265,0.59497374,0.71266353,0.06695513,0.3484986,0.031154128,-0.33444872
347,1778415923.7355442,0.57972896,0.6770517,0.061893854,0.21044308,0.19120082,-0.2790127
348,1778415923.745655,0.58289987,0.6399763,0.03000175,0.063682705,0.29092458,-0.21731532
349,1778415923.7557673,0.62217045,0.61985326,-0.005061271,-0.13683382,0.2678644,-0.11881329
350,1778415923.7660346,0.62217045,0.61985326,-0.005061271,-0.13683382,0.2678644,-0.11881329
351,1778415923.7761643,0.6324759,0.63936657,0.0045124586,-0.30818152,-0.06765333,0.17119499
352,1778415923.786268,0.5693015,0.7418116,0.0046344167,-0.18448131,-0.26251933,0.15989397
353,1778415923.7964077,0.602962,0.71595645,0.014878917,0.011301007,-0.39263365,0.037873644
354,1778415923.8065755,0.5987544,0.67314905,0.06768687,0.19960022,-0.45875978,-0.004428773
355,1778415923.8167038,0.58515614,0.6225363,0.093359105,0.29016098,-0.41462478,0.041233405
356,1778415923.82682,0.58088756,0.5724114,0.13012955,0.27763826,-0.26740626,0.16508633
357,1778415923.837067,0.57796055,0.5782654,0.12769037,0.16417004,-0.035124753,0.31703907
358,1778415923.847187,0.59497374,0.62448764,0.1015913,0.03604105,0.13194689,0.39690968
359,1778415923.8572857,0.61247474,0.646867,0.09409086,-0.11575896,0.27152961,0.42302418
360,1778415923.867422,0.64802563,0.6224753,0.09067602,-0.27030787,0.37980548,0.42852196
361,1778415923.8775313,0.67296606,0.5930834,0.03286777,-0.39706242,0.4286747,0.4616614
362,1778415923.8876297,0.67772245,0.5855829,-0.07799236,-0.33582318,0.1956296,0.52549684
363,1778415923.8977275,0.68924755,0.5772288,-0.10573788,-0.099571034,-0.14813483,0.57528234
364,1778415923.9078526,0.696626,0.5923516,-0.09707884,0.160963,-0.44516805,0.6064365
365,1778415923.9179647,0.72028595,0.61338943,-0.05549104,0.46273044,-0.7313584,0.62018096
366,1778415923.9280894,0.7308963,0.6650998,-0.0086590415,0.6180429,-0.8746063,0.5878051
367,1778415923.938221,0.7442508,0.66369724,0.030245667,0.5884159,-0.8791878,0.54275376
368,1778415923.948355,0.74979985,0.63552487,0.06780884,0.36575556,-0.7538077,0.5170974
369,1778415923.9587736,0.74979985,0.63552487,0.06780884,0.36575556,-0.7538077,0.5170974
370,1778415923.9690375,0.769862,0.57320416,0.10610375,0.016035212,-0.42745295,0.5369505
371,1778415923.9792655,0.769862,0.57320416,0.10610375,-0.21639901,-0.21395555,0.58246
372,1778415923.9893973,0.76699597,0.5100298,-0.028782167,-0.37201694,-0.15515977,0.6403395
373,1778415923.9996226,0.76791066,0.49929744,-0.044270877,-0.34422258,-0.25778514,0.6889033
374,1778415924.0097413,0.77132547,0.5036879,-0.047258858,-0.22922719,-0.3633121,0.72433347
375,1778415924.019871,0.7729719,0.52124995,-0.018171793,-0.058643065,-0.47769663,0.73960507
376,1778415924.0300226,0.7898022,0.5125909,0.03000175,0.051465396,-0.49510628,0.731053
377,1778415924.0401762,0.799132,0.4989925,0.05292992,0.060322944,-0.4445572,0.73716164
378,1778415924.0502963,0.81584024,0.46734434,0.08805392,-0.02565634,-0.28848112,0.7713701
379,1778415924.060426,0.8348658,0.41813415,0.11744587,-0.17867808,-0.013744468,0.84788096
380,1778415924.0706446,0.85254973,0.38685185,0.06506477,-0.366061,0.29245174,0.9737192
381,1778415924.080769,0.8675506,0.37929043,-0.047807667,-0.46685377,0.356898,1.0445796
382,1778415924.090873,0.8709654,0.41807315,-0.15067953,-0.52213705,0.14004086,1.1047498
383,1778415924.1009831,0.8962108,0.44923353,-0.18305947,-0.43783766,-0.11728613,1.0754282
384,1778415924.1110935,0.91578513,0.45899022,-0.16958307,-0.2660318,-0.4474588,0.9766208
385,1778415924.121244,0.9211513,0.430208,-0.15147226,-0.064751714,-0.74174315,0.890947
386,1778415924.1313648,0.9360302,0.40837747,-0.10659158,0.0852157,-0.9584476,0.8549059
387,1778415924.1415117,0.9509702,0.37197292,-0.032014064,0.11789699,-0.9972375,0.8727737
388,1778415924.1516473,0.96334887,0.34623972,0.019147458,0.06658431,-0.93660915,0.91996306
389,1778415924.1617577,0.9615805,0.33995885,0.04884431,-0.047036625,-0.7779369,0.9970848
390,1778415924.1719885,0.9551777,0.34136137,0.03866079,-0.15103643,-0.59650993,1.0436633
391,1778415924.1821814,0.95347023,0.3354464,-0.0031099375,-0.19272798,-0.5009095,1.0589349
392,1778415924.192387,0.9512141,0.3421541,-0.06591848,-0.1863139,-0.46593747,1.0662653
393,1778415924.2025135,0.9377987,0.3634968,-0.12140953,-0.1470658,-0.5386304,1.043816
394,1778415924.212685,0.9468845,0.368802,-0.15409435,-0.13225232,-0.64721173,1.0079277
395,1778415924.2229075,0.95023835,0.37069237,-0.16482669,-0.11682798,-0.79443026,0.9414961
396,1778415924.2330325,0.95651925,0.36142352,-0.1676927,-0.1001819,-0.94897914,0.872621
397,1778415924.2432663,0.9599951,0.35367918,-0.15598471,-0.08323039,-1.0648909,0.81229806
398,1778415924.2533946,0.9712762,0.33081198,-0.12817821,-0.059101213,-1.1591167,0.73975784
399,1778415924.2636616,0.98597217,0.29916382,-0.099822894,-0.03756821,-1.1748465,0.7089091
400,1778415924.2737753,0.9977411,0.27727225,-0.08707825,-0.030085113,-1.1351403,0.70402217
401,1778415924.2840245,1.0035952,0.26507643,-0.08171208,-0.041996986,-1.0903945,0.70173144
402,1778415924.2944012,1.0035341,0.26117378,-0.08555377,-0.0804815,-1.0094548,0.6974554
403,1778415924.3047004,0.99518,0.27916262,-0.10555494,-0.11789699,-0.9477574,0.6782131
404,1778415924.3148372,1.0109127,0.25708818,-0.16385102,-0.1085813,-0.91645056,0.61575216
405,1778415924.324972,1.0205474,0.25220984,-0.18287653,-0.040775254,-0.93126404,0.6114761
406,1778415924.3351376,1.0229865,0.2570272,-0.18970619,0.010079277,-0.9266826,0.6047566
407,1778415924.345249,1.0045099,0.2736745,-0.18098617,0.03191771,-0.87857693,0.57650405
408,1778415924.3553734,1.0045099,0.2736745,-0.18098617,0.03191771,-0.87857693,0.57650405
409,1778415924.3654718,0.98987484,0.26001516,-0.18226673,-0.02367103,-0.72402805,0.50762904
410,1778415924.3755949,0.98987484,0.26001516,-0.18226673,-0.05131268,-0.66355234,0.49205196
411,1778415924.3857093,0.99078953,0.257576,-0.18373023,-0.05131268,-0.66355234,0.49205196
412,1778415924.3958333,0.9883504,0.25855166,-0.19299906,-0.111635625,-0.5510005,0.45372015
413,1778415924.4059334,0.97963035,0.24281906,-0.25708818,-0.16325374,-0.4457789,0.33567044
414,1778415924.416055,0.97755706,0.22568391,-0.28178474,-0.10567969,-0.49434268,0.28970283
415,1778415924.4261699,0.9943873,0.20659742,-0.31575012,0.03894266,-0.6001751,0.26847526
416,1778415924.4363005,1.01573,0.19001108,-0.32014063,0.18891008,-0.68539083,0.25961772
417,1778415924.4464133,1.0206083,0.17879093,-0.32447016,0.34254268,-0.7476991,0.25671613
418,1778415924.4567325,1.009815,0.17781526,-0.33410487,0.41630468,-0.77824235,0.25595254
419,1778415924.4668562,1.0009121,0.16513158,-0.3544719,0.4428773,-0.8061894,0.26175576
420,1778415924.4772365,1.0009121,0.16513158,-0.3544719,0.4428773,-0.8061894,0.26175576
421,1778415924.4874804,0.99347264,0.11634825,-0.3565452,0.3846924,-0.84803367,0.28191432
422,1778415924.497585,0.99347264,0.11634825,-0.3565452,0.2658791,-0.8883508,0.31963524
423,1778415924.5077517,1.024694,0.07396773,-0.33355603,0.15088372,-1.012051,0.40882155
424,1778415924.5178587,1.0404266,0.068174705,-0.30099317,0.18463401,-1.0496192,0.42180246
425,1778415924.5280156,1.0464635,0.08140719,-0.27532095,0.2585487,-1.048703,0.40882155
426,1778415924.538177,1.0498173,0.08573671,-0.28507763,0.38927388,-1.047023,0.3744604
427,1778415924.5483267,1.0558543,0.050063897,-0.33160472,0.5534439,-1.1045971,0.3286455
428,1778415924.558446,1.0498173,0.040734082,-0.3655701,0.6934848,-1.1898128,0.3173445
429,1778415924.568686,1.0282917,0.021769563,-0.3726437,0.806953,-1.2748758,0.31123585
430,1778415924.578805,0.99938756,-0.020671938,-0.3849615,0.84696466,-1.3161092,0.3266602
431,1778415924.5889091,0.99536294,-0.063540295,-0.3851444,0.7060075,-1.3129021,0.43203443
432,1778415924.5990114,1.0031073,-0.034148335,-0.31629896,0.41447207,-1.2124147,0.5673411
433,1778415924.6091313,1.0404266,0.05372265,-0.20995127,0.05207626,-0.90285885,0.6569856
434,1778415924.6192338,1.053781,0.15135029,-0.12299499,-0.24327709,-0.4972443,0.61285055
435,1778415924.6295214,1.0424389,0.22409843,-0.09323715,-0.59574634,0.13179417,0.41554108
436,1778415924.6396434,1.038902,0.22403745,-0.114153,-0.87888235,0.5928447,0.21456642
437,1778415924.6497571,1.0003633,0.16104598,-0.17732742,-1.2263119,1.1265882,-0.029474247
438,1778415924.659899,0.9735934,0.10634767,-0.23818462,-1.3570372,1.3455834,-0.1207986
439,1778415924.6700132,0.9507872,0.06433302,-0.29574898,-1.3846788,1.4421002,-0.15592335
440,1778415924.6801438,0.92505395,0.04329521,-0.35733792,-1.2357804,1.3834571,-0.14523321
441,1778415924.6902657,0.90737003,0.04664906,-0.38886416,-0.91751957,1.2044735,-0.11804971
442,1778415924.7004116,0.9205415,0.060308397,-0.39002275,-0.54275376,0.94913185,-0.10262536
443,1778415924.7105155,0.9578607,0.07305304,-0.34691048,-0.1863139,0.72402805,-0.11026118
444,1778415924.720652,0.9874357,0.09409086,-0.29605386,0.10277808,0.61391956,-0.13775012
445,1778415924.7307656,0.9977411,0.10677453,-0.28257746,0.26511553,0.6058256,-0.1553125
446,1778415924.7409608,1.0224377,0.10957957,-0.31282312,0.38163805,0.6293439,-0.15393804
447,1778415924.7510924,1.0583545,0.122202255,-0.34611776,0.4448626,0.62888575,-0.1386664
448,1778415924.761338,1.0778068,0.14945993,-0.36288702,0.46914452,0.60231316,-0.12797627
449,1778415924.7717168,1.1060401,0.18446198,-0.3851444,0.48930305,0.5358815,-0.13561209
450,1778415924.7818453,1.1539088,0.2151345,-0.37965629,0.53130007,0.39935315,-0.2133447
451,1778415924.7920609,1.1717757,0.22842796,-0.32239684,0.59483004,0.31688634,-0.3707952
452,1778415924.8021758,1.1778736,0.19635291,-0.26922303,0.6453791,0.3575089,-0.5558874
453,1778415924.812309,1.1567138,0.15263085,-0.19879209,0.5804747,0.5195409,-0.7165449
454,1778415924.8224182,1.0866487,0.043905,-0.22659859,0.3036,1.0299188,-0.79381937
455,1778415924.8325198,1.0866487,0.043905,-0.22659859,0.3036,1.0299188,-0.79381937
456,1778415924.8426218,1.0821973,-0.014208145,-0.3035543,0.22327125,1.2076806,-0.68508536
457,1778415924.8527274,1.0659158,-0.0075004376,-0.345386,0.17241672,1.2658654,-0.58169645
458,1778415924.8628526,1.0353652,0.029940773,-0.4179512,0.13820826,1.2516629,-0.47494772
459,1778415924.87298,1.0586593,0.036221627,-0.43563515,0.099571034,1.1468995,-0.40378192
460,1778415924.8831096,1.0807338,0.04841746,-0.41630477,0.027947085,1.039998,-0.34681875
461,1778415924.8933365,1.1144553,0.11098208,-0.33508053,-0.094531395,1.0093021,-0.32482758
462,1778415924.90353,1.0553665,0.21830542,-0.30538365,-0.2098322,1.0557278,-0.3481932
463,1778415924.9136229,1.0326823,0.20848778,-0.35044727,-0.2565634,0.9654725,-0.4934264
464,1778415924.923757,1.0287796,0.16659509,-0.34239805,-0.17898351,0.77931136,-0.505491
465,1778415924.9338865,1.0519516,0.13793488,-0.27617463,-0.09468412,0.6221663,-0.46975538
466,1778415924.9441154,1.044756,0.17659567,-0.18781583,-0.050396383,0.6122397,-0.41034874
467,1778415924.954342,1.03006,0.25373432,-0.13476396,-0.08964448,0.72586066,-0.39752057
468,1778415924.9644756,1.0119493,0.34495914,-0.098725274,-0.26618454,0.88239485,-0.4334089
469,1778415924.9745803,1.0018268,0.38349798,-0.09018819,-0.4251622,0.96883225,-0.49418998
470,1778415924.9848576,1.0018268,0.38349798,-0.09018819,-0.4251622,0.96883225,-0.49418998
471,1778415924.9949758,1.0315237,0.36252114,-0.09159071,-0.4792238,0.99204516,-0.5682574
472,1778415925.0051205,1.0229255,0.29959065,-0.12622687,-0.0571159,0.86437434,-0.6203337
473,1778415925.0153098,1.0513418,0.27410138,-0.17775428,0.24190263,0.7058548,-0.5868888
474,1778415925.0254178,1.0534151,0.30922535,-0.16385102,0.49312097,0.47051895,-0.56153786
475,1778415925.035574,1.0312797,0.3623992,-0.14025208,0.59391373,0.36987892,-0.6055202
476,1778415925.045767,0.9973753,0.41173133,-0.11171384,0.54702985,0.35323283,-0.6797403
477,1778415925.0559165,0.95084816,0.41380462,-0.06829667,0.36056322,0.39767328,-0.7965683
478,1778415925.066025,0.8696239,0.39477912,-0.11409202,0.18188512,0.45769078,-0.86559606
479,1778415925.0761435,0.86602616,0.3498985,-0.13519081,0.07238753,0.3930918,-0.8584184
480,1778415925.0862474,0.88175875,0.32215294,-0.09372498,0.07238753,0.3930918,-0.8584184
481,1778415925.0963566,0.88175875,0.32215294,-0.09372498,0.05421429,0.053145275,-0.7841983
482,1778415925.106467,0.9815816,0.2978832,-0.016647313,0.21884248,-0.02733622,-0.7626653
483,1778415925.1166344,0.9961557,0.33288527,-0.042197585,0.50991976,-0.05665775,-0.7509061
484,1778415925.1268594,0.96828824,0.36843613,-0.069028415,0.7122689,-0.05421429,-0.7811439
485,1778415925.1371167,0.91554123,0.38794947,-0.09573729,0.7313584,-0.019242255,-0.8338311
486,1778415925.1472468,0.8644407,0.374717,-0.16257046,0.55741453,-0.05085453,-0.86391616
487,1778415925.1573935,0.81510854,0.36447248,-0.18519373,0.39935315,-0.099571034,-0.86498517
488,1778415925.1675,0.77589893,0.3269093,-0.20379238,0.39935315,-0.099571034,-0.86498517
489,1778415925.177609,0.7706547,0.30696914,-0.17641273,-0.02367103,-0.36377025,-0.7974846
490,1778415925.1878262,0.7971197,0.2602591,-0.12756842,-0.042455133,-0.40469822,-0.7189884
491,1778415925.1980135,0.83273154,0.23537959,-0.11293342,0.024129177,-0.4072944,-0.61193424
492,1778415925.2081487,0.8684653,0.2783089,-0.10262794,0.12095132,-0.36926803,-0.5271767
493,1778415925.21826,0.8735266,0.33971494,-0.09671296,0.28695396,-0.28328875,-0.47983465
494,1778415925.2283769,0.8845638,0.34306878,-0.13128816,0.39370266,-0.17165314,-0.42439863
495,1778415925.2385142,0.8718801,0.3586185,-0.14159364,0.38698313,-0.1330159,-0.38637227
496,1778415925.2486446,0.8352927,0.41807315,-0.16464376,0.22250767,-0.1020145,-0.35537085
497,1778415925.258803,0.8212065,0.43222034,-0.1612899,-0.021380283,-0.09590584,-0.36880988
498,1778415925.2690363,0.7926682,0.43331796,-0.12811723,-0.312763,-0.11362094,-0.37934732
499,1778415925.2792566,0.77675265,0.44801396,-0.09653002,-0.47403142,-0.106595986,-0.38148534
500,1778415925.2894554,0.7556538,0.45691693,-0.03811198,-0.6948592,-0.070554934,-0.39629883
501,1778415925.2995596,0.70711446,0.45557535,-0.0018903542,-0.8035932,-0.013286319,-0.39019018
502,1778415925.3096504,0.65253806,0.44148916,0.0061588963,-0.74189585,0.051618114,-0.32345316
503,1778415925.3198292,0.63241494,0.42490283,-0.0078053335,-0.63423085,0.06795876,-0.23762658
504,1778415925.329986,0.61918247,0.41758534,-0.017440042,-0.49357912,0.014202617,-0.10445796
505,1778415925.340119,0.6149139,0.44246486,-0.0064028124,-0.39706242,-0.038179077,0.0009162979
506,1778415925.3502464,0.6223534,0.462466,0.01097625,-0.313832,-0.0627664,0.08689558
507,1778415925.3603687,0.6479037,0.51557887,0.024696562,-0.2096795,-0.029474247,0.17150041
508,1778415925.370494,0.6626606,0.5560691,0.025855167,-0.13973543,0.053297993,0.21135938
509,1778415925.3806257,0.6947966,0.56527686,0.026160065,-0.10338894,0.17730364,0.2490803
510,1778415925.390742,0.6932722,0.5662525,0.008598062,-0.1049161,0.2678644,0.28221974
511,1778415925.4008896,0.77632576,0.4355132,0.01103723,-0.2790127,0.35323283,0.5386304
512,1778415925.411028,0.6714416,0.5914369,-0.069760166,-0.31612277,0.70325863,0.6337727
513,1778415925.4211595,0.7481534,0.6307075,-0.13836174,-0.26511553,0.8585711,0.6603453
514,1778415925.4316537,0.77559406,0.66711205,-0.21556135,-0.18906279,0.8388707,0.6461427
515,1778415925.4417884,0.7954123,0.6811373,-0.26678386,-0.090713486,0.74189585,0.5899431
516,1778415925.45192,0.8353536,0.6665023,-0.25129515,-0.10247265,0.58276546,0.59223384
517,1778415925.4620385,0.81431586,0.734677,-0.29343176,-0.079107046,0.5367978,0.5308419
518,1778415925.4721718,0.85236686,0.7555929,-0.289834,-0.06780604,0.3979787,0.4092797
519,1778415925.4822981,0.8666359,0.78291154,-0.2783699,-0.0983493,0.33658674,0.3031419
520,1778415925.4924195,0.8720631,0.7863874,-0.26330805,-0.236863,0.30466905,0.17348573
521,1778415925.50254,0.8259628,0.7952293,-0.2335502,-0.52442783,0.29535335,0.057726767
522,1778415925.512674,0.8010833,0.7630933,-0.2274523,-0.90087354,0.24312437,-0.07437284
523,1778415925.5231092,0.7826676,0.7319939,-0.19360885,-1.2180653,0.12293663,-0.19013181
524,1778415925.5333815,0.75065356,0.7183956,-0.1598264,-1.3381003,0.07895433,-0.28191432
525,1778415925.5436516,0.72059083,0.7038825,-0.12653178,-1.3350459,0.011453724,-0.41538838
526,1778415925.5541015,0.6852839,0.6826008,-0.06890646,-1.3350459,0.011453724,-0.41538838
527,1778415925.564215,0.6279025,0.6307075,0.060552314,-1.2753339,0.04596761,-0.4111123
528,1778415925.57432,0.61436516,0.62393886,0.09128582,-1.2753339,0.04596761,-0.4111123
529,1778415925.584448,0.61436516,0.62393886,0.09128582,-1.2380711,0.09773844,-0.35140023
530,1778415925.5946221,0.6027181,0.6327808,0.0951275,-1.1850786,0.13118331,-0.2846632
531,1778415925.6048703,0.58143634,0.7204689,0.08738314,-1.0618365,0.119729586,-0.205098
532,1778415925.6149988,0.5614962,0.7443727,0.08781,-0.67347896,-0.009010263,-0.12599096
533,1778415925.6251235,0.5558861,0.7440069,0.12580003,-0.50762904,-0.09682214,-0.10705414
534,1778415925.6352427,0.55210537,0.73577464,0.15598471,-0.37491855,-0.0926988,-0.055741455
535,1778415925.6453874,0.56387436,0.7094926,0.1765347,-0.29626966,-0.03268129,0.0096211275
536,1778415925.6556134,0.5998521,0.6913818,0.16488767,-0.21960606,0.06811147,0.100792766
537,1778415925.6657233,0.63918364,0.7001018,0.13891055,-0.15042557,0.13530666,0.18585575
538,1778415925.6759095,0.65089166,0.7487632,0.11665315,-0.06582073,0.19883664,0.23411411
539,1778415925.6862469,0.65089166,0.7487632,0.11665315,-0.06582073,0.19883664,0.23411411
540,1778415925.6964965,0.6945527,0.8266336,0.056649648,0.05421429,0.21624629,0.22434026
541,1778415925.7066207,0.6945527,0.8266336,0.056649648,0.05421429,0.21624629,0.22434026
542,1778415925.7167537,0.7562637,0.88980806,-0.0013415418,0.04260785,0.1366811,0.08231409
543,1778415925.726863,0.78108215,0.88053924,-0.0018293752,-0.016646078,0.042913284,0.022907447
544,1778415925.7370152,0.7830335,0.8732217,-0.0018293752,-0.041691553,-0.011301007,-0.024587326
545,1778415925.7471344,0.7952293,0.85175705,0.008476105,-0.051923547,-0.05467244,-0.049021937
546,1778415925.757323,0.7959611,0.85187894,0.050307814,-0.053603426,-0.08597928,-0.0711658
547,1778415925.7676797,0.7959611,0.85187894,0.050307814,-0.053603426,-0.08597928,-0.0711658
548,1778415925.7777963,0.807852,0.84462243,0.08726119,-0.019547688,-0.042760566,-0.08979719
549,1778415925.787898,0.82346267,0.8392563,0.09213952,0.002443461,-0.022296581,-0.09117164
550,1778415925.7979918,0.845842,0.82949966,0.09354204,0.047036625,-0.033444874,-0.105068825
551,1778415925.8081684,0.8614527,0.8070593,0.096042186,0.14385876,-0.056963183,-0.114689946
552,1778415925.8183243,0.8584647,0.7846189,0.09573729,0.2857322,-0.07819075,-0.111177474
553,1778415925.8285842,0.8555377,0.77199626,0.10262794,0.43875396,-0.08750644,-0.09682214
554,1778415925.838899,0.8516961,0.7739476,0.10799411,0.54428095,-0.0795652,-0.08811731
555,1778415925.8490696,0.83078015,0.79736364,0.10500612,0.64766985,-0.02107485,-0.1001819
556,1778415925.8594735,0.8067544,0.816816,0.079638794,0.6950119,0.05100725,-0.13347405
557,1778415925.86961,0.7885826,0.81577927,0.04908823,0.70478576,0.09437868,-0.16661349
558,1778415925.8797486,0.7771795,0.80401033,0.017074168,0.6936375,0.10293079,-0.19211712
559,1778415925.8898733,0.75644654,0.7957171,-0.020732917,0.68233645,0.07880162,-0.21288654
560,1778415925.8999777,0.7323598,0.78492385,-0.054637335,0.6927212,0.017256944,-0.22892176
561,1778415925.9100866,0.7118098,0.77955765,-0.06811373,0.7322747,-0.056505036,-0.2405282
562,1778415925.9202304,0.6782103,0.78785086,-0.06854059,0.7828238,-0.0917825,-0.24724771
563,1778415925.9303553,0.65729445,0.7791308,-0.05719846,0.77411896,-0.10140363,-0.26297748
564,1778415925.9405537,0.6485744,0.77431345,-0.04549046,0.72692966,-0.101098195,-0.26251933
565,1778415925.9506783,0.64076906,0.77333784,-0.044453815,0.6577492,-0.089949906,-0.26175576
566,1778415925.9609563,0.64851344,0.7683985,-0.05079565,0.59941155,-0.1160644,-0.268628
567,1778415925.971192,0.66747797,0.74595815,-0.054637335,0.5821546,-0.15577064,-0.2733622
568,1778415925.9815395,0.6864425,0.725957,-0.056039855,0.6036876,-0.22220223,-0.2602286
569,1778415925.9916785,0.7005287,0.725957,-0.058966853,0.660498,-0.28160888,-0.24373524
570,1778415926.00179,0.7031508,0.75181216,-0.03872177,0.7512115,-0.31948254,-0.24358252
571,1778415926.0121236,0.68766207,0.77285,-0.02128173,0.8032878,-0.3089451,-0.27091873
572,1778415926.0223026,0.6780274,0.7709596,-0.0037197291,0.7984009,-0.24617869,-0.301462
573,1778415926.0324516,0.6857717,0.7416896,-0.0001829375,0.7118107,-0.08659015,-0.32604933
574,1778415926.0429912,0.7144319,0.69534546,-0.005366167,0.61666846,0.0032070426,-0.31138855
575,1778415926.0531561,0.73278666,0.6782103,-0.027196707,0.51068336,0.082161374,-0.28084528
576,1778415926.0633187,0.7473607,0.6757711,-0.038904708,0.45753807,0.10781772,-0.26450464
577,1778415926.0734785,0.74004316,0.6943088,-0.042929336,0.44180828,0.10430524,-0.26053402
578,1778415926.0836003,0.731811,0.69967496,-0.04049017,0.45723262,0.09208794,-0.2828306
579,1778415926.0937054,0.7206518,0.6782713,-0.015488708,0.50228393,0.13897185,-0.29657507
580,1778415926.1039338,0.7070534,0.6524771,-0.0035977708,0.5348125,0.2678644,-0.268628
581,1778415926.114086,0.7132124,0.62125576,-0.020489,0.51068336,0.4017966,-0.21197024
582,1778415926.124226,0.7061388,0.61527985,-0.0646989,0.33261612,0.45952338,-0.101098195
583,1778415926.13442,0.7061388,0.61527985,-0.0646989,0.33261612,0.45952338,-0.101098195
584,1778415926.1446311,0.71266353,0.6132675,-0.112872444,0.28099802,0.29932398,-0.077579886
585,1778415926.1549222,0.71266353,0.6132675,-0.112872444,0.28099802,0.29932398,-0.077579886
586,1778415926.1650748,0.723152,0.5873514,-0.14824036,0.31658092,0.13515393,-0.061086524
587,1778415926.175188,0.7220543,0.57704586,-0.1686074,0.3715588,-0.04841107,-0.032528576
588,1778415926.1854644,0.71967614,0.57954603,-0.16080207,0.49434268,-0.3277292,0.027030786
589,1778415926.1955924,0.72540814,0.60399866,-0.098725274,0.6722572,-0.516792,0.09712757
590,1778415926.20571,0.72540814,0.60399866,-0.098725274,0.6722572,-0.516792,0.09712757
591,1778415926.2158134,0.73187196,0.5982056,-0.07000408,0.5746715,-0.410196,0.10186178
592,1778415926.225925,0.73187196,0.5982056,-0.07000408,0.5746715,-0.410196,0.10186178
593,1778415926.2361598,0.73187196,0.5982056,-0.07000408,0.5746715,-0.410196,0.10186178
594,1778415926.246403,0.73187196,0.5982056,-0.07000408,0.5746715,-0.410196,0.10186178
595,1778415926.2565067,0.6961382,0.5382631,-0.08073642,0.052839845,-0.008093964,0.20570888
596,1778415926.2666056,0.70967555,0.54259264,-0.099274084,-0.03940081,0.08536842,0.27152961
597,1778415926.2767646,0.71937126,0.5435683,-0.10707942,-0.092240654,0.10980303,0.3100141
598,1778415926.28687,0.7452264,0.5513126,-0.111165024,-0.11636983,0.10629055,0.32742378
599,1778415926.2972896,0.7452264,0.5513126,-0.111165024,-0.11636983,0.10629055,0.32742378
600,1778415926.3074608,0.77358174,0.5464953,-0.09177365,-0.13103059,0.0954477,0.31902438
601,1778415926.317566,0.7862044,0.5347263,-0.09756667,-0.16279559,0.087201014,0.31566462
602,1778415926.3277555,0.7862044,0.5347263,-0.09756667,-0.16279559,0.087201014,0.31566462
603,1778415926.3379955,0.7862044,0.5347263,-0.09756667,-0.16279559,0.087201014,0.31566462
604,1778415926.3483636,0.7862044,0.5347263,-0.09756667,-0.16279559,0.087201014,0.31566462
605,1778415926.3584661,0.778643,0.5374704,0.03719729,-0.34300083,0.18707748,0.30772337
606,1778415926.368595,0.7778503,0.5263112,0.078114316,-0.46288314,0.40973786,0.311694
607,1778415926.3787658,0.7775454,0.5103346,0.110311314,-0.6009387,0.6818783,0.30008754
608,1778415926.3888936,0.7775454,0.5103346,0.110311314,-0.6009387,0.6818783,0.30008754
609,1778415926.3990715,0.7818749,0.48545516,0.10994543,-0.68737614,0.8584184,0.29626966
610,1778415926.4093182,0.7632762,0.43167153,0.034941066,-0.8877399,1.297325,0.37232238
611,1778415926.419446,0.7646178,0.4369767,0.009634708,-0.86177814,1.3309226,0.40026945
612,1778415926.4298177,0.7646178,0.4369767,0.009634708,-0.86177814,1.3309226,0.40026945
613,1778415926.440161,0.7934609,0.45697787,0.012805625,-0.8025242,1.3028228,0.39477167
614,1778415926.450472,0.85279363,0.3823394,0.015000875,-0.701426,1.3083206,0.31429017
615,1778415926.4606066,0.90182096,0.28434587,0.020732917,-0.743423,1.2869403,0.37705657
616,1778415926.470727,0.91340697,0.24098967,0.020489,-0.8078693,1.2812898,0.4841107
617,1778415926.480859,0.9059065,0.2189762,-0.010488417,-0.89873546,1.2118039,0.6574437
618,1778415926.4909747,0.88974696,0.22287886,-0.025062438,-0.9430232,1.1264355,0.7678576
619,1778415926.5010793,0.8769414,0.23550156,-0.055247124,-0.9656252,0.8359691,0.98547834
620,1778415926.5112112,0.89986956,0.23794071,-0.05049075,-0.925919,0.59223384,1.0997101
621,1778415926.5213354,0.9234075,0.24964872,-0.025855167,-0.8405506,0.29993483,1.1890492
622,1778415926.5314634,0.9587754,0.2687352,0.016708292,-0.7680103,0.012370021,1.2134838
623,1778415926.54158,0.97371536,0.3155672,0.056771606,-0.77396625,-0.12629639,1.1779009
624,1778415926.551708,0.9743252,0.33947104,0.061467,-0.80832744,-0.2611449,1.0984885
625,1778415926.5618186,0.99078953,0.3228847,0.055186145,-0.8266534,-0.46135598,0.96745783
626,1778415926.5719507,1.0063392,0.2950782,0.059698608,-0.75732017,-0.6728681,0.86009824
627,1778415926.582091,1.0039,0.27654052,0.06658925,-0.5991061,-0.8558222,0.7799222
628,1778415926.592219,1.0029854,0.25562465,0.07890704,-0.4896085,-0.9492846,0.74067414
629,1778415926.6023378,1.0195717,0.22885482,0.09360302,-0.3210097,-1.0708468,0.68875057
630,1778415926.612466,1.0259744,0.22300081,0.11207971,-0.1919644,-1.1246029,0.64812803
631,1778415926.622588,1.0371946,0.22641563,0.1086039,-0.12690726,-1.1297953,0.61086524
632,1778415926.632941,1.0371337,0.23855051,0.08860273,-0.15210545,-1.1007792,0.4886922
633,1778415926.643094,1.0371337,0.23855051,0.08860273,-0.15210545,-1.1007792,0.4886922
634,1778415926.6532545,1.0224377,0.26336902,0.06951625,-0.20631973,-1.0125091,0.35353827
635,1778415926.6635754,1.0224377,0.26336902,0.06951625,-0.20631973,-1.0125091,0.35353827
636,1778415926.6739495,1.0154251,0.26477155,0.03500204,-0.22052236,-1.0027353,0.26328292
637,1778415926.6842752,1.0167667,0.2511122,0.0248795,-0.21975878,-1.0172434,0.2264783
638,1778415926.694391,1.0443902,0.19647488,0.009085896,-0.1797471,-1.0922271,0.15867224
639,1778415926.7045841,1.0634767,0.17604686,0.038294915,-0.104610674,-1.114371,0.15424347
640,1778415926.7147055,1.0634767,0.17604686,0.038294915,-0.104610674,-1.114371,0.15424347
641,1778415926.7248333,1.0634767,0.17604686,0.038294915,-0.104610674,-1.114371,0.15424347
642,1778415926.7350743,1.0634767,0.17604686,0.038294915,-0.104610674,-1.114371,0.15424347
643,1778415926.7452865,1.097442,0.24239218,0.07476046,-0.06918049,-0.5128214,-0.04596761
644,1778415926.7557695,1.097442,0.24239218,0.07476046,-0.06918049,-0.5128214,-0.04596761
645,1778415926.7662168,1.1042718,0.2365382,0.06988213,-0.049785517,-0.44180828,-0.0852157
646,1778415926.7764184,1.0900027,0.24964872,0.042136606,0.095753126,-0.28099802,-0.18799378
647,1778415926.7865276,1.0787824,0.24867305,0.037807085,0.18295415,-0.22479841,-0.2302962
648,1778415926.7967825,1.0885391,0.22580586,0.052990895,0.23426682,-0.14660765,-0.24419338
649,1778415926.806891,1.0885391,0.22580586,0.052990895,0.23426682,-0.14660765,-0.24419338
650,1778415926.8170714,1.0900636,0.20147517,0.07207738,0.23426682,-0.14660765,-0.24419338
651,1778415926.827172,1.0900636,0.20147517,0.07207738,0.23426682,-0.14660765,-0.24419338
652,1778415926.8375556,1.0900636,0.20147517,0.07207738,0.23426682,-0.14660765,-0.24419338
653,1778415926.8477032,1.0542688,0.26324704,0.0066467295,-0.19822577,0.30558532,-0.08506299
654,1778415926.8578136,1.0830511,0.2826994,0.008415125,-0.20662516,0.30925053,-0.08857546
655,1778415926.8681135,1.0830511,0.2826994,0.008415125,-0.20662516,0.30925053,-0.08857546
656,1778415926.8783548,1.0830511,0.2826994,0.008415125,-0.20662516,0.30925053,-0.08857546
657,1778415926.888661,1.0830511,0.2826994,0.008415125,-0.20662516,0.30925053,-0.08857546
658,1778415926.8987892,1.1111014,0.28263843,-0.03207504,0.17760907,0.17928895,-0.1525636
659,1778415926.9089289,1.1038449,0.28312626,-0.025733208,0.24862215,0.12095132,-0.17302758
660,1778415926.919054,1.1038449,0.28312626,-0.025733208,0.24862215,0.12095132,-0.17302758
661,1778415926.9293835,1.1038449,0.28312626,-0.025733208,0.24862215,0.12095132,-0.17302758
662,1778415926.9397237,1.1038449,0.28312626,-0.025733208,0.24862215,0.12095132,-0.17302758
663,1778415926.949837,1.1001861,0.25885656,0.031831127,0.17363845,0.15393804,-0.29703322
664,1778415926.9600716,1.097808,0.23647723,0.05433244,0.1328632,0.24709499,-0.31230485
665,1778415926.9702995,1.097808,0.23647723,0.05433244,0.1328632,0.24709499,-0.31230485
666,1778415926.9804285,1.097808,0.23647723,0.05433244,0.1328632,0.24709499,-0.31230485
667,1778415926.990564,1.097808,0.23647723,0.05433244,0.1328632,0.24709499,-0.31230485
668,1778415927.0007305,1.0662208,0.20421924,-0.0071345624,-0.0035124752,0.5215262,-0.2762638
669,1778415927.010854,1.051037,0.22269592,-0.030977417,0.026725354,0.49006665,-0.26450464
670,1778415927.0211837,1.0475612,0.22757424,-0.040246252,0.09911288,0.41370848,-0.26526824
671,1778415927.0314555,1.0475612,0.22757424,-0.040246252,0.09911288,0.41370848,-0.26526824
672,1778415927.0419676,1.0475612,0.22757424,-0.040246252,0.09911288,0.41370848,-0.26526824
673,1778415927.0521884,1.0395728,0.24861206,-0.0,0.35262197,0.21563543,-0.2669481
674,1778415927.062329,1.0353652,0.25306356,0.029209021,0.37216964,0.23854288,-0.26343563
675,1778415927.0724967,1.0339018,0.2584297,0.03207504,0.34956762,0.28328875,-0.24969117
676,1778415927.08294,1.0339018,0.2584297,0.03207504,0.34956762,0.28328875,-0.24969117
677,1778415927.0931802,1.0339018,0.2584297,0.03207504,0.34956762,0.28328875,-0.24969117
678,1778415927.1032836,1.024511,0.29202923,-0.008963938,0.27351493,0.31749722,-0.22800545
679,1778415927.113393,1.01573,0.29105356,-0.005488125,0.2780964,0.28848112,-0.23915374
680,1778415927.1235113,1.0094491,0.28715092,0.0013415418,0.28023443,0.25228736,-0.24281894
681,1778415927.1336176,1.0094491,0.28715092,0.0013415418,0.28023443,0.25228736,-0.24281894
682,1778415927.1437461,1.0094491,0.28715092,0.0013415418,0.28023443,0.25228736,-0.24281894
683,1778415927.1538422,0.95188487,0.27794304,-0.00079272914,0.27550024,0.10995574,-0.15118915
684,1778415927.1639383,0.9504823,0.29306588,0.0005488125,0.29245174,0.06414085,-0.12950343
685,1778415927.174405,0.9504823,0.29306588,0.0005488125,0.29245174,0.06414085,-0.12950343
686,1778415927.1846364,0.9504823,0.29306588,0.0005488125,0.29245174,0.06414085,-0.12950343
687,1778415927.1947775,0.9504823,0.29306588,0.0005488125,0.29245174,0.06414085,-0.12950343
688,1778415927.204907,0.9995705,0.31361586,0.06250364,0.36636642,-0.11835514,-0.15622878
689,1778415927.2150369,1.0101199,0.2932488,0.12390967,0.3680463,0.01786781,-0.18906279
690,1778415927.2251346,1.0115834,0.272272,0.12933682,0.3483459,0.14095716,-0.16783522
691,1778415927.2352295,1.0076197,0.26153967,0.12604393,0.32742378,0.24602598,-0.14294247
692,1778415927.2454376,1.0119493,0.26446667,0.1094576,0.3126103,0.37873647,-0.110872045
693,1778415927.255569,1.006888,0.283919,0.07628494,0.32436943,0.48487428,-0.089949906
694,1778415927.2657084,0.99255794,0.30672523,0.027074749,0.3391829,0.5186246,-0.086437434
695,1778415927.275921,0.99078953,0.32751912,-0.04164877,0.3492622,0.4268421,-0.11484267
696,1778415927.2860332,0.99078953,0.32751912,-0.04164877,0.3492622,0.4268421,-0.11484267
697,1778415927.2963643,0.9863381,0.3314218,-0.045551438,0.33200526,0.16523905,-0.22999077
698,1778415927.306498,0.9863381,0.3314218,-0.045551438,0.33200526,0.16523905,-0.22999077
699,1778415927.3166223,1.0165837,0.2906877,0.056283772,0.24281894,0.116217114,-0.27931812
700,1778415927.3267384,1.0021926,0.29026082,0.10445731,0.19685133,0.29611692,-0.24190263
701,1778415927.3369,0.9828012,0.30105415,0.11372615,0.14859296,0.48456886,-0.20448714
702,1778415927.347014,0.9828012,0.30105415,0.11372615,0.14859296,0.48456886,-0.20448714
703,1778415927.3572497,0.9491408,0.3234945,0.100127794,0.011453724,0.87979865,-0.20005837
704,1778415927.367505,0.96444654,0.29465136,0.065674566,-0.049632803,1.0574077,-0.22861631
705,1778415927.3776007,1.0081075,0.25361237,0.040002335,-0.06383542,1.1238394,-0.22342396
706,1778415927.3877246,1.0299382,0.2306232,0.02933098,-0.069027774,1.1974486,-0.18661933
707,1778415927.3978696,1.0192058,0.2511122,0.0160985,-0.067500606,1.2226468,-0.16447547
708,1778415927.4079895,0.9989607,0.2643447,0.05939371,-0.09697486,1.2530373,-0.1067487
709,1778415927.418119,0.9437745,0.3351415,0.09909115,-0.12889257,1.3605496,-0.08536842
710,1778415927.4282644,0.9113337,0.37179,0.120372884,-0.14950927,1.4498887,-0.12797627
711,1778415927.4384017,0.8798074,0.3996575,0.13830076,-0.17165314,1.5766432,-0.24373524
712,1778415927.4485447,0.86407477,0.39666948,0.11604336,-0.19211712,1.662317,-0.38774672
713,1778415927.458657,0.8487081,0.3766683,0.08116327,-0.20311269,1.6285667,-0.5039638
714,1778415927.4689393,0.8358415,0.3527035,0.050246835,-0.19456059,1.5091426,-0.5543602
715,1778415927.4790633,0.8084008,0.33709285,0.029513916,-0.15760323,1.2628112,-0.5832236
716,1778415927.489273,0.7391895,0.360021,0.016525354,-0.06811147,0.96929044,-0.5626069
717,1778415927.4994056,0.705407,0.36977768,-0.009695687,0.032375857,0.6575964,-0.52122074
718,1778415927.5095172,0.6977236,0.3673385,0.009817646,0.19501872,0.19837849,-0.49174652
719,1778415927.5196514,0.71052927,0.37374133,0.032136023,0.4098906,-0.20311269,-0.47968194
720,1778415927.529764,0.75223905,0.37477797,0.079638794,0.6203337,-0.5155703,-0.48838675
721,1778415927.5400126,0.7715694,0.41045076,0.12945877,0.7307475,-0.65484756,-0.52274793
722,1778415927.5501294,0.7650446,0.43636695,0.16921718,0.7846564,-0.68768156,-0.5687156
723,1778415927.560401,0.75364155,0.44618458,0.21879324,0.7076874,-0.56062156,-0.5847508
724,1778415927.5705464,0.70394355,0.46283188,0.21885422,0.55741453,-0.38606682,-0.5476407
725,1778415927.5806935,0.646867,0.4861869,0.20190202,0.25977045,-0.17944166,-0.46838093
726,1778415927.5908709,0.623451,0.48813823,0.19324298,-0.100029185,-0.021838432,-0.39354995
727,1778415927.601077,0.61808485,0.48868704,0.19226731,-0.2968805,0.06841691,-0.34987307
728,1778415927.6112761,0.6248535,0.48228425,0.18501079,-0.5684101,0.19303341,-0.28221974
729,1778415927.62173,0.6248535,0.48228425,0.18501079,-0.5684101,0.19303341,-0.28221974
730,1778415927.63188,0.6050963,0.53582394,0.12153149,-0.7643451,0.18325958,-0.22143865
731,1778415927.6420197,0.62704873,0.55576414,0.11110405,-0.66339964,0.14294247,-0.17730364
732,1778415927.6521933,0.6349151,0.6015595,0.11128698,-0.50503284,0.15653422,-0.12003502
733,1778415927.6624124,0.643879,0.6313173,0.13000758,-0.41248676,0.19822577,-0.09773844
734,1778415927.6725838,0.6736979,0.649855,0.14293517,-0.4373795,0.26236662,-0.08155051
735,1778415927.6828454,0.6736979,0.6727832,0.13842271,-0.5893322,0.25579983,-0.10445796
736,1778415927.6929767,0.68400335,0.67808837,0.14275223,-0.7160868,0.22159137,-0.14110987
737,1778415927.7030897,0.70449233,0.6532698,0.1525089,-0.9166033,0.06582073,-0.21395555
738,1778415927.7132523,0.7342501,0.5758263,0.18744996,-1.0247264,-0.1337795,-0.23518312
739,1778415927.7234776,0.8200479,0.5100298,0.22397648,-0.91675603,-0.30085114,-0.13744467
740,1778415927.7335703,0.8568183,0.54801977,0.24989262,-0.5991061,-0.39171734,0.013439035
741,1778415927.743672,0.9267614,0.5947908,0.26538134,0.02611449,-0.39752057,0.07070765
742,1778415927.753775,0.9377987,0.6222314,0.32355547,0.02611449,-0.39752057,0.07070765
743,1778415927.763887,0.82577986,0.7871191,0.357033,0.014966198,-0.23105977,0.07360926
744,1778415927.7740536,0.8599892,0.70382154,0.41093862,-0.32177326,-0.07360926,-0.21166481
745,1778415927.7841554,0.8599892,0.70382154,0.41093862,-0.32177326,-0.07360926,-0.21166481
746,1778415927.7945404,0.89029586,0.6838814,0.43380582,-0.5850562,0.17256944,-0.36147952
747,1778415927.8049493,0.81529146,0.45807552,0.35325232,-1.0545062,0.6226244,-0.38683042
748,1778415927.8151681,0.81529146,0.45807552,0.35325232,-1.0545062,0.6226244,-0.38683042
749,1778415927.8253703,0.73723817,0.43264723,0.2573321,-1.0380127,0.8071057,-0.17379116
750,1778415927.835506,0.7329086,0.45411184,0.26062497,-0.9440922,0.8162687,-0.12568553
751,1778415927.8456528,0.73144513,0.46380752,0.25281963,-0.88697636,0.817185,-0.1226312
752,1778415927.8557587,0.7093707,0.47984505,0.22117145,-0.8668178,0.79168135,-0.14370605
753,1778415927.8658605,0.6946137,0.5061271,0.19336495,-0.87888235,0.7012733,-0.2134974
754,1778415927.876004,0.6678439,0.53149444,0.1879378,-0.9289733,0.60139686,-0.3145956
755,1778415927.8861077,0.6429034,0.5353971,0.17683959,-0.95539325,0.5363397,-0.37201694
756,1778415927.8962357,0.64711094,0.51582277,0.14628904,-0.9966267,0.42928556,-0.4280638
757,1778415927.9063458,0.64711094,0.51582277,0.14628904,-0.9966267,0.42928556,-0.4280638
758,1778415927.916628,0.6269878,0.5104566,0.12549512,-1.0025826,0.23518312,-0.30711251
759,1778415927.9267454,0.6082062,0.5626548,0.14616705,-1.0468704,0.122020334,-0.18081611
760,1778415927.9368715,0.60808426,0.6421716,0.18360828,-1.1012373,0.042760566,-0.10323623
761,1778415927.9469914,0.61534077,0.7324208,0.22050068,-1.1754575,-0.058184914,-0.0720821
762,1778415927.9571438,0.6225363,0.79827833,0.26190552,-1.2075279,-0.12064589,-0.084146686
763,1778415927.9673421,0.64143986,0.8490739,0.31550622,-1.2347114,-0.16997325,-0.10476339
764,1778415927.977471,0.6573554,0.8940156,0.35752088,-1.2481505,-0.17592919,-0.111941054
765,1778415927.987642,0.6565627,0.9247491,0.37776592,-1.2492194,-0.15897769,-0.113162786
766,1778415927.9977717,0.6621118,0.9584096,0.4047797,-1.2493721,-0.13729197,-0.13148874
767,1778415928.008,0.6457694,0.9862771,0.42752492,-1.2493721,-0.13729197,-0.13148874
768,1778415928.0181599,0.6457694,0.9862771,0.42752492,-1.2289082,-0.13744467,-0.15485434
769,1778415928.0283613,0.6488183,0.93907917,0.46966153,-0.98563105,-0.18585575,-0.18310685
770,1778415928.0384965,0.64253753,0.9137729,0.4927117,-0.7987063,-0.20250183,-0.15317446
771,1778415928.0486348,0.6435742,0.8865151,0.515213,-0.6275113,-0.21074851,-0.129198
772,1778415928.0587626,0.64351314,0.86456263,0.5100298,-0.3914119,-0.19272798,-0.0777326
773,1778415928.0688946,0.6434522,0.8513911,0.5017976,-0.19440787,-0.19013181,-0.030695979
774,1778415928.0790105,0.64436686,0.8566963,0.48667476,0.06093381,-0.18188512,0.024281893
775,1778415928.0893059,0.6472329,0.8727948,0.47636923,0.18600847,-0.1740966,0.035277467
776,1778415928.099455,0.65845305,0.8893202,0.47039333,0.24770586,-0.18035796,0.022296581
777,1778415928.1095757,0.649794,0.92981035,0.47069818,0.24220806,-0.18035796,-0.038789943
778,1778415928.1198246,0.649794,0.92981035,0.47069818,0.18432859,-0.15836681,-0.1348485
779,1778415928.1299348,0.6370494,0.89377165,0.47484478,0.09743301,-0.1339322,-0.22327125
780,1778415928.1400838,0.6349151,0.8391343,0.46203914,0.036651913,-0.10338894,-0.26175576
781,1778415928.1502032,0.6308905,0.8088887,0.45685592,0.03191771,-0.075594574,-0.2640465
782,1778415928.1604085,0.61918247,0.80157113,0.44819686,0.04642576,-0.06612616,-0.2678644
783,1778415928.170751,0.62156063,0.78449696,0.4463675,0.07147124,-0.10354166,-0.29138273
784,1778415928.180876,0.62241435,0.74260426,0.43978173,0.124311075,-0.17027868,-0.3031419
785,1778415928.1911912,0.62339,0.72309095,0.44770905,0.19929479,-0.2284636,-0.29901853
786,1778415928.2014434,0.62625605,0.7036386,0.45216054,0.3119994,-0.29550606,-0.2782491
787,1778415928.2115612,0.62686586,0.7031508,0.47258857,0.4175264,-0.311694,-0.257327
788,1778415928.2216692,0.62893915,0.7027239,0.49008957,0.54550266,-0.26893342,-0.22540927
789,1778415928.231955,0.6259512,0.7114439,0.47935724,0.62995476,-0.20433442,-0.19318613
790,1778415928.2421086,0.6356468,0.70558995,0.46819806,0.68768156,-0.13469578,-0.15454891
791,1778415928.2523518,0.65302587,0.69674796,0.44728217,0.7079928,-0.07437284,-0.106901415
792,1778415928.2624671,0.6611971,0.7020531,0.4267932,0.71578133,-0.04795292,-0.06658431
793,1778415928.272603,0.67955184,0.73510385,0.37880257,0.7686212,-0.031306844,-0.01572978
794,1778415928.2828357,0.6779664,0.76382506,0.34117845,0.83092946,-0.10399981,-0.050701816
795,1778415928.2930472,0.6779664,0.76382506,0.34117845,0.83092946,-0.10399981,-0.050701816
796,1778415928.3031585,0.6696122,0.7720573,0.32709226,0.853226,-0.15118915,-0.093767814
797,1778415928.313321,0.6465621,0.7593736,0.31166452,0.8874345,-0.20204368,-0.16157386
798,1778415928.3235235,0.6274756,0.7305914,0.30026144,0.89904094,-0.22143865,-0.19349156
799,1778415928.3336205,0.62284124,0.6735759,0.28404096,0.853226,-0.27183503,-0.15027285
800,1778415928.343737,0.62284124,0.6735759,0.28404096,0.853226,-0.27183503,-0.15027285
801,1778415928.3538806,0.6193654,0.673088,0.27434528,0.79534656,-0.31123585,-0.08979719
802,1778415928.3639848,0.6173531,0.6671731,0.25739306,0.7892379,-0.34269542,-0.070249505
803,1778415928.3740838,0.61363333,0.6544284,0.21367101,0.798859,-0.4005749,-0.045814894
804,1778415928.3843591,0.61363333,0.6544284,0.21367101,0.798859,-0.4005749,-0.045814894
805,1778415928.3944712,0.60424256,0.661502,0.09354204,0.8732319,-0.84116143,0.0065668016
806,1778415928.4047675,0.60424256,0.661502,0.09354204,0.8732319,-0.84116143,0.0065668016
807,1778415928.4148867,0.62845135,0.6594897,0.06915038,0.923781,-1.1261301,0.010537425
808,1778415928.4250152,0.74028707,0.6971138,0.17744938,1.0088439,-1.7186694,0.0076358155
809,1778415928.435202,0.76748383,0.72894496,0.24428254,1.0697777,-1.7686076,-0.055436023
810,1778415928.445383,0.78992414,0.73345745,0.32977533,1.1085677,-1.6493362,-0.11927144
811,1778415928.4556015,0.7945585,0.7204079,0.38191253,1.1064297,-1.3370314,-0.16661349
812,1778415928.4657135,0.78047234,0.7004677,0.39130333,1.0192287,-0.8926268,-0.16875152
813,1778415928.475817,0.7622396,0.6780274,0.3715461,0.9275989,-0.60994893,-0.14538592
814,1778415928.4859269,0.7603492,0.64326924,0.30513975,0.68768156,-0.110413894,-0.05421429
815,1778415928.4960895,0.76358116,0.63735425,0.26964986,0.56077427,0.08445212,0.0036651916
816,1778415928.5061982,0.75589776,0.6664413,0.19409668,0.39675698,0.30482176,0.086437434
817,1778415928.5164788,0.75589776,0.6664413,0.19409668,0.39675698,0.30482176,0.086437434
818,1778415928.5265813,0.73815286,0.72760344,0.040551145,0.44043383,0.16707164,0.056352317
819,1778415928.5367177,0.73370135,0.73144513,0.02792846,0.5554292,-0.0071776668,0.010995574
820,1778415928.5468338,0.7269327,0.7232129,0.04744179,0.7079928,-0.19990565,-0.033750303
821,1778415928.5570214,0.7133343,0.7027849,0.061710916,0.8199339,-0.31871894,-0.04718934
822,1778415928.5671237,0.69876033,0.69308925,0.07549221,0.90469146,-0.36972618,-0.032223143
823,1778415928.5772412,0.6905281,0.69016224,0.08768804,0.94134337,-0.34468073,-0.019089539
824,1778415928.5873947,0.69674796,0.6492452,0.08256579,0.93599826,-0.2733622,0.014049901
825,1778415928.5975156,0.7122977,0.6214387,0.08171208,0.8885035,-0.2237294,0.07452556
826,1778415928.6076472,0.7283961,0.617536,0.08409027,0.8191703,-0.16065755,0.14385876
827,1778415928.617744,0.7450435,0.6443059,0.091651686,0.71837753,-0.036957346,0.1853976
828,1778415928.6279612,0.7513853,0.6594287,0.08274873,0.6739371,0.05375614,0.18112154
829,1778415928.6380756,0.74345803,0.6569896,0.066772185,0.622319,0.1769982,0.1647809
830,1778415928.6481907,0.7112,0.65692854,0.045978293,0.5708536,0.28344148,0.16050485
831,1778415928.6583195,0.679003,0.65302587,0.03738023,0.515723,0.38255435,0.172264
832,1778415928.6684294,0.679003,0.65302587,0.03738023,0.515723,0.38255435,0.172264
833,1778415928.6785522,0.6424765,0.60814524,-0.025977125,0.41157046,0.49418998,0.2443461
834,1778415928.6886866,0.6392446,0.59290045,-0.07549221,0.39584067,0.45081854,0.28115073
835,1778415928.6988027,0.66820973,0.5601546,-0.10896978,0.38805214,0.29657507,0.32146785
836,1778415928.7089226,0.68473506,0.54893446,-0.12061679,0.37782016,0.14095716,0.3567453
837,1778415928.7190247,0.6909549,0.5557031,-0.14013013,0.38530326,-0.07727446,0.38820487
838,1778415928.7293236,0.69534546,0.56545985,-0.13970327,0.41890085,-0.34895676,0.38866302
839,1778415928.73951,0.6918696,0.57222855,-0.15287478,0.44806966,-0.5311473,0.3733914
840,1778415928.7496204,0.6777834,0.57857037,-0.15141128,0.4925101,-0.7703011,0.3481932
841,1778415928.7597597,0.6769298,0.5596668,-0.1167751,0.5505423,-0.9634872,0.32162055
842,1778415928.7700813,0.6986383,0.52807957,-0.063113436,0.60231316,-1.026559,0.3210097
843,1778415928.780421,0.7186395,0.4871626,-0.041099958,0.60048056,-0.9830349,0.35414913
844,1778415928.7906134,0.74772656,0.45685592,-0.056588665,0.5145013,-0.89934635,0.4382958
845,1778415928.8007452,0.7593736,0.45051408,-0.070187025,0.42180246,-0.8698721,0.48823404
846,1778415928.8108819,0.7863874,0.44209895,-0.109640546,0.24388795,-0.8713993,0.5352707
847,1778415928.8210335,0.8000467,0.47033232,-0.12836114,0.107359566,-0.9755518,0.5364924
848,1778415928.8311603,0.79827833,0.49576062,-0.1027499,0.06261369,-1.0874928,0.48288897
849,1778415928.8412762,0.80279076,0.5060051,-0.086285524,0.100029185,-1.1600331,0.3857614
850,1778415928.8513815,0.7968148,0.52057916,-0.10970152,0.21594086,-1.2463179,0.26710084
851,1778415928.8614612,0.7805334,0.51905465,-0.14659391,0.3840815,-1.3631458,0.16371189
852,1778415928.87156,0.7759599,0.4267932,-0.23403804,0.70005155,-1.6290249,0.13561209
853,1778415928.881658,0.80187607,0.37160707,-0.2853825,0.8775079,-1.8710803,0.18860464
854,1778415928.891751,0.81846243,0.35697204,-0.27269882,0.97524637,-2.0489948,0.24480425
855,1778415928.901856,0.86748964,0.3506912,-0.21690291,0.9923506,-2.268448,0.38744128
856,1778415928.911984,0.88913727,0.36727753,-0.19080381,0.9100365,-2.3066273,0.42745295
857,1778415928.9220808,0.92389536,0.37270468,-0.16177773,0.8170323,-2.3037255,0.4540256
858,1778415928.9321797,0.9752399,0.34008083,-0.1253122,0.6275113,-2.069917,0.54565537
859,1778415928.942283,1.0021926,0.30452996,-0.07799236,0.6275113,-2.069917,0.54565537
860,1778415928.952413,1.0271331,0.2894681,-0.056100838,0.5983425,-1.8104519,0.6282749
861,1778415928.9625716,1.021645,0.29965162,-0.08585867,0.6239988,-1.4824172,0.6994407
862,1778415928.9727027,1.021645,0.29965162,-0.08585867,0.63697976,-1.2243266,0.7425067
863,1778415928.9828656,1.0013999,0.30782285,-0.14031307,0.634689,-1.0132728,0.7635816
864,1778415928.992988,0.9838988,0.29989552,-0.21214652,0.5876524,-0.78022766,0.7779369
865,1778415929.0031183,0.9724348,0.29934675,-0.25690526,0.5494733,-0.70646566,0.78694713
866,1778415929.0132449,0.94285995,0.3123963,-0.32788497,0.47800204,-0.66996646,0.7816021
867,1778415929.0234494,0.9346887,0.304469,-0.38910806,0.4289801,-0.72036284,0.75396043
868,1778415929.0337343,0.93066406,0.2961758,-0.41136545,0.41584653,-0.82756966,0.7171558
869,1778415929.04384,0.92633456,0.29959065,-0.40118194,0.44730607,-0.9448558,0.66156703
870,1778415929.0541399,0.9215172,0.2977003,-0.38801044,0.44730607,-0.9448558,0.66156703
871,1778415929.0643468,0.92596865,0.27769914,-0.37672928,0.5009095,-0.8859073,0.6440047
872,1778415929.0744488,0.92938346,0.2655643,-0.37179,0.47494772,-0.7699956,0.6554584
873,1778415929.0845528,0.9342618,0.25190493,-0.36203334,0.3678936,-0.6356053,0.67149365
874,1778415929.0948365,0.9342618,0.25190493,-0.36203334,0.3678936,-0.6356053,0.67149365
875,1778415929.1049442,0.9340789,0.23281845,-0.39057156,-0.111941054,-0.24465153,0.7318166
876,1778415929.115062,0.9340789,0.23281845,-0.39057156,-0.111941054,-0.24465153,0.7318166
877,1778415929.1253593,0.9369449,0.2333063,-0.4027674,-0.2761111,-0.13515393,0.7483099
878,1778415929.1355913,0.95834863,0.23909931,-0.4106947,-0.48624873,0.03604105,0.74097955
879,1778415929.1459687,0.9685931,0.24592897,-0.41075566,-0.52519137,0.07971791,0.7131852
880,1778415929.1561775,0.9685931,0.24592897,-0.41075566,-0.52519137,0.07971791,0.7131852
881,1778415929.1663063,0.9637148,0.25519782,-0.41807315,-0.5288566,0.10262536,0.6925685
882,1778415929.1767542,0.9563363,0.25861263,-0.42295152,-0.49770245,0.09758572,0.6591236
883,1778415929.186874,0.97981334,0.22501312,-0.39947453,-0.3555236,0.06429356,0.58551437
884,1778415929.1972246,0.97981334,0.22501312,-0.39947453,-0.3555236,0.06429356,0.58551437
885,1778415929.2073467,1.0076197,0.2025728,-0.39166918,-0.25030205,0.04917465,0.5561928
886,1778415929.2174625,1.0339627,0.1864743,-0.37124115,-0.22815818,0.11178834,0.5525276
887,1778415929.2275977,1.0404875,0.20165811,-0.34752026,-0.30772337,0.21471913,0.53878313
888,1778415929.2377052,1.047927,0.20117027,-0.32514092,-0.46013424,0.3651447,0.495259
889,1778415929.247844,1.050854,0.19781642,-0.31886008,-0.63331455,0.5180137,0.43478334
890,1778415929.2579522,1.0483538,0.1943406,-0.3261166,-0.7545713,0.61758476,0.3810272
891,1778415929.268103,1.0405486,0.18903543,-0.3284948,-0.84956086,0.6808093,0.30741793
892,1778415929.2782202,1.0454879,0.17293692,-0.3123353,-0.8573494,0.7096727,0.24648413
893,1778415929.2883587,1.0518907,0.16177773,-0.29916382,-0.8151997,0.72402805,0.20555615
894,1778415929.2984757,1.0578667,0.15452121,-0.2733696,-0.73532903,0.74036866,0.17669277
895,1778415929.3085887,1.0578667,0.15452121,-0.2733696,-0.68936145,0.7666359,0.15057829
896,1778415929.31869,1.0451219,0.1853157,-0.21123183,-0.64934975,0.84238315,0.10262536
897,1778415929.3288493,1.0241451,0.190255,-0.2072682,-0.6261369,0.9363037,0.058490347
898,1778415929.3389716,1.0235963,0.17458336,-0.22080556,-0.6042985,0.98563105,0.025198191
899,1778415929.3491476,1.0253648,0.16775368,-0.2455631,-0.5364924,0.9841039,0.016035212
900,1778415929.359471,1.0335969,0.17305888,-0.25586858,-0.43844852,0.94134337,0.01985312
901,1778415929.369603,1.0498173,0.17940071,-0.24037987,-0.30176744,0.90194255,0.012370021
902,1778415929.379736,1.0568299,0.20531686,-0.2157443,-0.19532417,0.8953757,-0.01817324
903,1778415929.389852,1.0602448,0.23013538,-0.21641506,-0.12644911,0.9106474,-0.05299256
904,1778415929.4000163,1.0690258,0.23501371,-0.21989086,-0.07925977,0.9272934,-0.082924955
905,1778415929.410127,1.0777458,0.22720838,-0.2271474,-0.018936822,0.96791595,-0.14462234
906,1778415929.4202783,1.0668916,0.22909874,-0.24903892,0.004886922,0.9665415,-0.17302758
907,1778415929.4303963,1.062562,0.23934323,-0.25007555,0.0067195175,0.9219484,-0.20738874
908,1778415929.440527,1.068477,0.24470939,-0.23891638,0.012217305,0.87369,-0.24174993
909,1778415929.4506593,1.074392,0.24574605,-0.22531801,0.03481932,0.84696466,-0.27382034
910,1778415929.4608316,1.0637206,0.24477036,-0.21361004,0.07422013,0.8384125,-0.321926
911,1778415929.4709532,1.044756,0.2497097,-0.20385335,0.113926366,0.85139346,-0.36392298
912,1778415929.4810946,1.0199375,0.24190436,-0.1934869,0.11133019,0.8755226,-0.39446622
913,1778415929.4912033,1.0082296,0.22440335,-0.1923283,0.09315695,0.8912524,-0.4027129
914,1778415929.501322,1.0032293,0.2063535,-0.20928052,0.06795876,0.88300574,-0.3817908
915,1778415929.5115907,1.0021926,0.204829,-0.22239104,0.059406646,0.84329945,-0.3633121
916,1778415929.5216992,1.012986,0.20678036,-0.21074401,0.056352317,0.7275405,-0.3463606
917,1778415929.5318122,1.0151201,0.2122075,-0.17866896,0.110413894,0.6440047,-0.35201108
918,1778415929.5419223,1.0031683,0.2361723,-0.14720371,0.110413894,0.6440047,-0.35201108
919,1778415929.5520663,0.9954239,0.24836816,-0.14092286,0.13836098,0.65102965,-0.36193767
920,1778415929.5625134,1.0007901,0.23867247,-0.13305654,0.14278975,0.6365216,-0.38530326
921,1778415929.57276,1.0232915,0.21476863,-0.11305538,0.13271047,0.6209445,-0.4109596
922,1778415929.5830693,1.0335969,0.2001946,-0.09256637,0.12339478,0.6246097,-0.38759398
923,1778415929.5931702,1.0632328,0.24300198,-0.12311694,0.182496,0.57604593,-0.38453966
924,1778415929.6033134,1.0632328,0.24300198,-0.12311694,0.182496,0.57604593,-0.38453966
925,1778415929.613497,1.0568908,0.30142003,-0.15458219,0.27458394,0.50671273,-0.47739118
926,1778415929.6236753,1.0437194,0.33941004,-0.16933915,0.35903606,0.43875396,-0.60063326
927,1778415929.6337924,1.021645,0.34965453,-0.19464551,0.4344779,0.31764993,-0.7631234
928,1778415929.6439612,0.98981386,0.32770205,-0.20995127,0.57696223,-0.04505131,-0.9804387
929,1778415929.654117,0.99036264,0.29312685,-0.19464551,0.6543894,-0.22876903,-1.016938
930,1778415929.6642249,0.9992657,0.2853825,-0.1629973,0.7131852,-0.34132096,-1.0103711
931,1778415929.6743476,0.99914366,0.29330978,-0.1042134,0.7330383,-0.31612277,-0.9848675
932,1778415929.684487,0.98261833,0.3094083,-0.09256637,0.689056,-0.2060143,-0.95111716
933,1778415929.6946123,0.95371425,0.35130098,-0.13598356,0.5652031,-0.10888673,-0.9045387
934,1778415929.7047253,0.9565802,0.35611832,-0.15549688,0.40378192,-0.10919216,-0.90408057
935,1778415929.714847,0.9565802,0.35611832,-0.15549688,0.40378192,-0.10919216,-0.90408057
936,1778415929.7249846,0.9590804,0.36685067,-0.1501917,0.28619036,-0.1085813,-0.9078985
937,1778415929.7350883,0.98908216,0.40831652,-0.11897036,0.118966006,-0.029321533,-0.9256136
938,1778415929.7452192,0.9857282,0.42392716,-0.11226265,0.09758572,0.06246097,-0.9411906
939,1778415929.7553582,0.99011874,0.4059383,-0.09903017,0.0364992,0.20631973,-0.9379836
940,1778415929.7656262,0.9506652,0.41423148,-0.09793254,-0.05467244,0.33475417,-0.9086621
941,1778415929.7757816,0.8827344,0.44978234,-0.14945993,-0.17837265,0.4222606,-0.84238315
942,1778415929.785936,0.84200037,0.47161287,-0.20732918,-0.25259277,0.29367346,-0.7831292
943,1778415929.79608,0.837366,0.4686249,-0.25007555,-0.22342396,0.088422745,-0.7800749
944,1778415929.8061955,0.84163445,0.46612477,-0.26763758,-0.0852157,-0.2874121,-0.81138176
945,1778415929.816316,0.85297656,0.46179524,-0.24184339,0.051465396,-0.5161811,-0.84116143
946,1778415929.8264997,0.85297656,0.46179524,-0.24184339,0.051465396,-0.5161811,-0.84116143
947,1778415929.8366294,0.88078314,0.4441113,-0.056039855,0.43493605,-0.7860308,-0.9213375
948,1778415929.8467577,0.8606599,0.43203738,0.012683666,0.4167628,-0.59406644,-0.9025534
949,1778415929.8568676,0.81956,0.441977,0.07165052,0.25457808,-0.25427267,-0.8220719
950,1778415929.867204,0.7743745,0.45423386,0.08829784,-0.010079277,0.1777618,-0.72586066
951,1778415929.877478,0.7502877,0.4463675,0.058296088,-0.2585487,0.48181996,-0.65194595
952,1778415929.8877406,0.70095557,0.4736252,0.022318374,-0.50488013,0.7870999,-0.5914703
953,1778415929.89785,0.6839423,0.45155072,-0.050002918,-0.6122397,0.98440933,-0.52274793
954,1778415929.9079854,0.69156474,0.4374036,-0.07524829,-0.6273586,1.0193814,-0.47250426
955,1778415929.918119,0.6655266,0.47142997,-0.118604474,-0.5537493,1.0117456,-0.39858958
956,1778415929.928249,0.6404642,0.49722412,-0.16927817,-0.40851614,0.88438016,-0.3463606
957,1778415929.938365,0.6111942,0.53375065,-0.19031598,-0.2582433,0.5748242,-0.31031954
958,1778415929.94849,0.5800948,0.57033813,-0.18019344,-0.1563815,0.36560285,-0.3043636
959,1778415929.9586747,0.5685698,0.58357066,-0.15446024,-0.07009678,0.19272798,-0.31780264
960,1778415929.9690204,0.5683259,0.5660696,-0.11201873,-0.00580322,0.009010263,-0.32238412
961,1778415929.979151,0.582534,0.5359459,-0.07732158,0.0030543262,-0.044135015,-0.25152376
962,1778415929.9894097,0.6327808,0.49301654,-0.06073525,-0.00061086525,-0.03191771,-0.14385876
963,1778415929.9995492,0.67522234,0.51149327,-0.061954834,0.040011674,0.010079277,0.003970624
964,1778415930.009662,0.70443135,0.5431415,-0.08171208,0.15699236,0.11804971,0.12034045
965,1778415930.0199194,0.7160784,0.56454515,-0.09409086,0.24037547,0.18875736,0.16615535
966,1778415930.0300565,0.7208957,0.5859488,-0.115128666,0.33017266,0.31963524,0.2180789
967,1778415930.0403142,0.70333374,0.60107166,-0.125861,0.27656925,0.46105054,0.23472497
968,1778415930.0505354,0.6799787,0.6210728,-0.122507155,0.05177083,0.6082691,0.23105977
969,1778415930.0608628,0.646867,0.6337565,-0.12195834,-0.2790127,0.7270824,0.20265454
970,1778415930.071001,0.63503706,0.6137553,-0.13397123,-0.5991061,0.7903069,0.1742493
971,1778415930.0811815,0.6431473,0.56302065,-0.1516552,-0.77366084,0.7828238,0.19058995
972,1778415930.091302,0.66052634,0.5317993,-0.16372907,-0.8426886,0.7133379,0.24510968
973,1778415930.1014426,0.66113615,0.5318603,-0.1428132,-0.74204856,0.567952,0.33551773
974,1778415930.111625,0.6587579,0.5284454,-0.13354437,-0.6411031,0.52641314,0.37858373
975,1778415930.1217327,0.6583921,0.52997,-0.113116354,-0.5045747,0.49434268,0.46517387
976,1778415930.1318886,0.64735484,0.5631426,-0.09232246,-0.50991976,0.47876564,0.54718256
977,1778415930.1420128,0.62710977,0.6036328,-0.073540874,-0.68508536,0.5123632,0.6017023
978,1778415930.1522055,0.6276586,0.63143927,-0.07274815,-0.84864455,0.5143485,0.6180429
979,1778415930.1624181,0.6213777,0.6582701,-0.067503944,-1.003957,0.5019785,0.6220135
980,1778415930.1725469,0.61765796,0.6943698,-0.045856334,-1.1351403,0.46288314,0.624457
981,1778415930.1827805,0.60716957,0.74510443,-0.027623562,-1.2011138,0.43799037,0.60063326
982,1778415930.1931326,0.59229064,0.7798016,0.006768687,-1.2751812,0.4466952,0.5891795
983,1778415930.2033815,0.57106996,0.8139499,0.029513916,-1.358717,0.47983465,0.5839872
984,1778415930.213533,0.5702772,0.83840257,0.04927117,-1.4408784,0.52855116,0.5847508
985,1778415930.2237313,0.57436275,0.8681604,0.07000408,-1.508379,0.6036876,0.5917757
986,1778415930.2338378,0.58661956,0.948531,0.05292992,-1.4434745,0.6647741,0.6046039
987,1778415930.243974,0.5700942,1.021645,0.03750219,-1.3519975,0.56779927,0.59131753
988,1778415930.2541056,0.55905706,1.1050035,0.03506302,-1.2434162,0.3633121,0.5299256
989,1778415930.2642272,0.5558251,1.1464694,0.05286894,-1.1363621,0.1469131,0.44776422
990,1778415930.2743373,0.5605205,1.1553113,0.110189356,-0.95829487,-0.10980303,0.32574388
991,1778415930.2844472,0.57497257,1.1169555,0.17744938,-0.7454083,-0.2593123,0.22800545
992,1778415930.2945502,0.60137653,1.0590253,0.21861032,-0.5508477,-0.30863968,0.18310685
993,1778415930.3046584,0.6213777,1.0229255,0.2376968,-0.33261612,-0.30634892,0.18219055
994,1778415930.314765,0.6575384,0.9839599,0.26550332,-0.33261612,-0.30634892,0.18219055
995,1778415930.3250265,0.6575384,0.9839599,0.26550332,-0.029932396,-0.23793201,0.19883664
996,1778415930.3351285,0.7596785,0.9390182,0.2420873,0.38896844,-0.0062613687,0.22800545
997,1778415930.345266,0.7596785,0.9390182,0.2420873,0.38896844,-0.0062613687,0.22800545
998,1778415930.3553667,0.82949966,0.98853326,0.15446024,0.5203045,0.06536258,0.087201014
999,1778415930.3654997,0.8688312,0.97871566,0.13244675,0.47769663,-0.038179077,-0.10827587
