id,timestamp,acc_x,acc_y,acc_z,gyro_x,gyro_y,gyro_z
0,1778415802.088278,0.73870164,0.38770556,0.6952845,-1.1023064,-0.4503604,0.12583824
1,1778415802.0984142,0.73870164,0.38770556,0.6952845,-1.1023064,-0.4503604,0.12583824
2,1778415802.1085455,0.73870164,0.38770556,0.6952845,-1.1023064,-0.4503604,0.12583824
3,1778415802.1186712,0.77974063,0.30977416,0.7413237,-0.7302894,-0.69714993,0.4729624
4,1778415802.12879,0.8041323,0.35800868,0.72784734,-0.7111999,-0.7779369,0.49586987
5,1778415802.138957,0.7984612,0.36928985,0.75498307,-0.70707655,-0.8239045,0.45173484
6,1778415802.1490824,0.7984612,0.36928985,0.75498307,-0.70707655,-0.8239045,0.45173484
7,1778415802.1592207,0.7984612,0.36928985,0.75498307,-0.70707655,-0.8239045,0.45173484
8,1778415802.1694446,0.7984612,0.36928985,0.75498307,-0.70707655,-0.8239045,0.45173484
9,1778415802.1797156,0.8169379,0.2932488,0.7807163,-0.4370741,-0.41279218,0.39446622
10,1778415802.1898346,0.82949966,0.30928633,0.7532757,-0.38560867,-0.38896844,0.44058657
11,1778415802.1999772,0.82949966,0.30928633,0.7532757,-0.38560867,-0.38896844,0.44058657
12,1778415802.2101257,0.82949966,0.30928633,0.7532757,-0.38560867,-0.38896844,0.44058657
13,1778415802.2204769,0.82949966,0.30928633,0.7532757,-0.38560867,-0.38896844,0.44058657
14,1778415802.2306063,0.8832832,0.34142238,0.7723621,-0.30497447,-0.2012801,0.26740626
15,1778415802.2407432,0.8760267,0.3594722,0.77376467,-0.32253686,-0.09636399,0.27030787
16,1778415802.2509637,0.8760267,0.3594722,0.77376467,-0.32253686,-0.09636399,0.27030787
17,1778415802.2613168,0.8760267,0.3594722,0.77376467,-0.32253686,-0.09636399,0.27030787
18,1778415802.2716033,0.8587696,0.48429656,0.7735207,-0.23396139,0.076816306,0.16065755
19,1778415802.2817183,0.9227978,0.4388061,0.7385797,-0.12767084,0.070249505,0.0030543262
20,1778415802.2919037,0.9560924,0.4520386,0.7651056,-0.015882496,0.05513059,-0.0936151
21,1778415802.3020642,0.9560924,0.4520386,0.7651056,-0.015882496,0.05513059,-0.0936151
22,1778415802.312182,0.9560924,0.4520386,0.7651056,-0.015882496,0.05513059,-0.0936151
23,1778415802.322317,1.0089004,0.46972254,0.87133133,0.3381139,0.16157386,-0.41386122
24,1778415802.3324664,1.0152422,0.47801572,0.872246,0.4083634,0.27091873,-0.4914411
25,1778415802.3425784,1.0021926,0.5218597,0.8695629,0.46395215,0.4286747,-0.6056729
26,1778415802.3528683,1.0021926,0.5218597,0.8695629,0.46395215,0.4286747,-0.6056729
27,1778415802.3629987,1.0021926,0.5218597,0.8695629,0.46395215,0.4286747,-0.6056729
28,1778415802.3733432,1.0021926,0.5218597,0.8695629,0.46395215,0.4286747,-0.6056729
29,1778415802.3835032,1.0531102,0.60814524,0.87858784,0.6806566,1.1183416,-1.2944235
30,1778415802.393624,1.0327432,0.6075354,0.8188282,0.6774496,1.2159272,-1.432479
31,1778415802.4037578,1.009693,0.5889978,0.79083884,0.71883565,1.2180653,-1.5491543
32,1778415802.4138901,1.009693,0.5889978,0.79083884,0.71883565,1.2180653,-1.5491543
33,1778415802.4240892,1.009693,0.5889978,0.79083884,0.71883565,1.2180653,-1.5491543
34,1778415802.434211,0.9067602,0.5188717,0.8009004,0.9796751,1.1962268,-1.6447546
35,1778415802.4443476,0.84980565,0.5207621,0.7281522,1.2009611,1.3083206,-1.6652187
36,1778415802.4547648,0.84980565,0.5207621,0.7281522,1.2009611,1.3083206,-1.6652187
37,1778415802.4651494,0.84980565,0.5207621,0.7281522,1.2009611,1.3083206,-1.6652187
38,1778415802.4752913,0.7824237,0.5488735,0.6099746,1.6504052,0.6786713,-1.7256943
39,1778415802.4855063,0.7851068,0.55625194,0.64936715,1.7160732,0.49266282,-1.7253889
40,1778415802.4957047,0.79132664,0.5938761,0.705529,1.721571,0.4454735,-1.7463111
41,1778415802.506029,0.78309447,0.6447328,0.78937536,1.6742289,0.5868888,-1.8263344
42,1778415802.516175,0.78309447,0.6447328,0.78937536,1.6742289,0.5868888,-1.8263344
43,1778415802.5264113,0.78309447,0.6447328,0.78937536,1.6742289,0.5868888,-1.8263344
44,1778415802.5365717,0.7204689,0.6245487,0.6603434,1.6614008,0.9053023,-1.9677497
45,1778415802.5467126,0.68046653,0.60491335,0.5633255,1.9025398,0.82909685,-2.074193
46,1778415802.5568178,0.64192766,0.5891807,0.4764912,2.1700988,0.32589662,-2.075262
47,1778415802.5671375,0.5889368,0.5735091,0.4189269,2.1700988,0.32589662,-2.075262
48,1778415802.5772674,0.5547275,0.58564395,0.3966085,2.3437371,-0.26832256,-1.9457586
49,1778415802.587502,0.5653379,0.6315613,0.45270932,2.3437371,-0.26832256,-1.9457586
50,1778415802.5976436,0.573753,0.7186395,0.61851174,2.3014348,-0.24404067,-2.0774
51,1778415802.6077821,0.573753,0.7186395,0.61851174,2.3014348,-0.24404067,-2.0774
52,1778415802.6178863,0.50021213,0.6465011,0.5686307,2.1036673,0.22617286,-2.1126773
53,1778415802.6281497,0.50021213,0.6465011,0.5686307,2.1036673,0.22617286,-2.1126773
54,1778415802.6384304,0.485943,0.64936715,0.5399705,2.053729,0.33505958,-2.0728185
55,1778415802.6487086,0.43868414,0.65003794,0.37282664,1.8501581,0.6424775,-2.111914
56,1778415802.6588354,0.43868414,0.65003794,0.37282664,1.8501581,0.6424775,-2.111914
57,1778415802.6689615,0.3895959,0.71199274,0.37459502,1.6878207,0.6385069,-2.0857995
58,1778415802.679091,0.36288702,0.7144929,0.38587618,1.5642731,0.6959282,-2.0931299
59,1778415802.6892262,0.3430078,0.71693206,0.40343818,1.389413,0.84406304,-2.0764837
60,1778415802.6993592,0.30007848,0.7043094,0.39880377,1.1995866,1.0476339,-2.0143282
61,1778415802.7094786,0.27824792,0.7012604,0.33325115,1.0543534,1.1800389,-1.9404135
62,1778415802.7195773,0.2534294,0.7191273,0.24227023,0.9326385,1.1890492,-1.8681786
63,1778415802.7296834,0.2534294,0.7191273,0.24227023,0.9326385,1.1890492,-1.8681786
64,1778415802.7397969,0.20385335,0.7341892,0.17275399,0.91553426,1.1362094,-1.8400788
65,1778415802.749901,0.19891405,0.75120234,0.15567982,1.0797043,0.74204856,-1.8080084
66,1778415802.760168,0.1917185,0.7624225,0.17360769,1.2011138,0.56291234,-1.8290832
67,1778415802.7702732,0.18019344,0.7824847,0.19446257,1.3200798,0.4259258,-1.8512272
68,1778415802.7804246,0.16141187,0.78992414,0.2382456,1.3828462,0.38453966,-1.8556559
69,1778415802.790543,0.128788,0.7884607,0.24666072,1.3927728,0.42195517,-1.8593211
70,1778415802.8007693,0.122446164,0.7982173,0.2373919,1.3542882,0.45234573,-1.8429805
71,1778415802.8109066,0.094517715,0.8244993,0.19940189,1.315651,0.48624873,-1.8522961
72,1778415802.8210726,0.07335794,0.8336462,0.15757017,1.2906055,0.45020768,-1.9071213
73,1778415802.8313456,0.04494165,0.8253531,0.14025208,1.26556,0.38163805,-1.9388863
74,1778415802.8414998,0.018598646,0.83071923,0.12860507,1.2710578,0.34895676,-1.9781344
75,1778415802.851625,-0.02042802,0.8146817,0.12543415,1.3379476,0.31123585,-2.0570886
76,1778415802.8617496,-0.05963763,0.7946805,0.09555435,1.4271339,0.3275765,-2.1277964
77,1778415802.8718965,-0.09360302,0.78144807,0.045185562,1.4992161,0.31031954,-2.1859813
78,1778415802.8820114,-0.16263144,0.76772773,-0.010915271,1.5694655,0.23747386,-2.2773056
79,1778415802.892191,-0.2057437,0.7243106,-0.036770437,1.6314683,0.17562376,-2.346639
80,1778415802.9023347,-0.24007498,0.65997756,-0.04981998,1.7015651,0.08964448,-2.3315198
81,1778415802.91246,-0.27952853,0.64887935,-0.032623854,1.7201965,0.08231409,-2.2779164
82,1778415802.9226675,-0.31459153,0.6483915,-0.031038398,1.6969837,0.13194689,-2.211485
83,1778415802.9328504,-0.3506912,0.6542455,-0.04451479,1.6059648,0.22525656,-2.1406245
84,1778415802.9431932,-0.3506912,0.6542455,-0.04451479,1.6059648,0.22525656,-2.1406245
85,1778415802.953478,-0.409658,0.6424155,-0.123055965,1.2669345,0.29229903,-1.9903517
86,1778415802.9636497,-0.43856218,0.6166213,-0.13982524,1.0210613,0.32742378,-1.8617646
87,1778415802.9737806,-0.4795402,0.59863245,-0.13762999,0.7622071,0.3819435,-1.6890424
88,1778415802.984062,-0.51088345,0.57228947,-0.15824094,0.5331327,0.46410486,-1.4785993
89,1778415802.9941747,-0.53259206,0.5717407,-0.20001167,0.3463606,0.47601673,-1.2321151
90,1778415803.0042841,-0.54539764,0.57411885,-0.22623271,0.23411411,0.43096542,-1.0340421
91,1778415803.0143926,-0.5439342,0.59064424,-0.23556253,0.114689946,0.356898,-0.79427755
92,1778415803.0246003,-0.550215,0.6179629,-0.23958716,0.028863383,0.2452624,-0.5893322
93,1778415803.0347266,-0.547227,0.6282074,-0.22702545,-0.004428773,0.15378532,-0.45570546
94,1778415803.0448592,-0.547227,0.6282074,-0.22702545,-0.019242255,0.09605856,-0.33567044
95,1778415803.0549917,-0.5274088,0.6531479,-0.18104716,-0.006414085,0.032070424,-0.21731532
96,1778415803.0652127,-0.51655453,0.6697342,-0.16171674,0.011453724,-0.028252518,-0.10125092
97,1778415803.075393,-0.5135056,0.6810154,-0.14671588,0.0036651916,-0.06566802,-0.013133603
98,1778415803.0855513,-0.5149691,0.67955184,-0.14476454,-0.02367103,-0.099265605,0.070249505
99,1778415803.0958164,-0.5228354,0.67662483,-0.14909407,-0.035277467,-0.15103643,0.15592335
100,1778415803.105965,-0.5316164,0.66345334,-0.15238695,-0.023823744,-0.21731532,0.24144448
101,1778415803.1162348,-0.5438122,0.65272105,-0.14159364,0.0143553335,-0.30680707,0.35338554
102,1778415803.126418,-0.55253226,0.6444889,-0.13226382,0.056046885,-0.36361754,0.43127087
103,1778415803.136752,-0.5588131,0.62942696,-0.12482436,0.09056077,-0.40607268,0.50671273
104,1778415803.1471167,-0.5573496,0.6128406,-0.11403105,0.10476339,-0.4361578,0.6239988
105,1778415803.1572278,-0.5481417,0.5918638,-0.11982407,0.06352998,-0.5010622,0.90576047
106,1778415803.16742,-0.5481417,0.5918638,-0.11982407,0.06352998,-0.5010622,0.90576047
107,1778415803.1775312,-0.5406413,0.5894856,-0.07799236,-0.09101892,-0.43493605,1.17897
108,1778415803.1878352,-0.5406413,0.5894856,-0.07799236,-0.09101892,-0.43493605,1.17897
109,1778415803.1979764,-0.52643317,0.5812534,-0.06384519,-0.16493362,-0.3585779,1.2667818
110,1778415803.2080796,-0.5055783,0.5704601,-0.07311402,-0.2771801,-0.2602286,1.3866642
111,1778415803.2181823,-0.45947802,0.5683868,-0.11366516,-0.44776422,-0.21456642,1.6380352
112,1778415803.2284453,-0.45947802,0.5683868,-0.11366516,-0.44776422,-0.21456642,1.6380352
113,1778415803.238562,-0.43325698,0.5693625,-0.12738548,-0.48181996,-0.25778514,1.7777706
114,1778415803.248682,-0.4024625,0.58003384,-0.11732392,-0.47021353,-0.31337386,1.8840611
115,1778415803.2587943,-0.3609357,0.59905934,-0.11226265,-0.42821655,-0.37614027,1.9961549
116,1778415803.2688951,-0.25599056,0.63168323,-0.08805392,-0.3098614,-0.54321194,2.1623104
117,1778415803.2789927,-0.20409729,0.66186786,-0.061162103,-0.28160888,-0.5928447,2.224313
118,1778415803.2890902,-0.155131,0.6799787,-0.02841629,-0.28237244,-0.60246587,2.281887
119,1778415803.2991917,-0.09671296,0.717054,0.029513916,-0.34804046,-0.5635232,2.3596196
120,1778415803.3092911,-0.054515377,0.76291037,0.06994311,-0.45646906,-0.40607268,2.3463335
121,1778415803.3195088,-0.018842563,0.7716913,0.075126335,-0.5468771,-0.2499966,2.3058636
122,1778415803.3296034,0.014330104,0.7819359,0.085614756,-0.6543894,-0.101098195,2.2704334
123,1778415803.339703,0.014330104,0.7819359,0.085614756,-0.6543894,-0.101098195,2.2704334
124,1778415803.3497941,0.099152125,0.8319997,0.06945527,-0.91431254,0.2041817,2.1755965
125,1778415803.3599262,0.12787332,0.84029293,0.05860098,-1.0306823,0.28924468,2.1340578
126,1778415803.3700583,0.15903367,0.84023196,0.048722353,-1.1191051,0.28252518,2.1594086
127,1778415803.3802366,0.19031598,0.8514522,0.05780825,-1.1223122,0.21868975,2.238821
128,1778415803.3903513,0.22598879,0.86456263,0.07219934,-1.0709995,0.1339322,2.3214407
129,1778415803.4004881,0.25885656,0.8982231,0.09323715,-0.9424124,0.027183503,2.379931
130,1778415803.410644,0.2711134,0.90456504,0.107750185,-0.768163,-0.061850104,2.3878722
131,1778415803.4207785,0.28965104,0.8924301,0.11457986,-0.625526,-0.12293663,2.3839016
132,1778415803.4308805,0.35556954,0.9318227,0.12189735,-0.55573463,-0.15592335,2.3403776
133,1778415803.4410937,0.37605852,0.9581047,0.11043327,-0.516792,-0.18875736,2.251802
134,1778415803.4511917,0.38703477,0.9381035,0.07988271,-0.46395215,-0.28313604,2.1348214
135,1778415803.4613955,0.38703477,0.9381035,0.07988271,-0.46395215,-0.28313604,2.1348214
136,1778415803.471525,0.37459502,0.8698068,0.05506419,-0.20066923,-0.6403395,2.1035144
137,1778415803.4816334,0.40447482,0.86547726,0.09000525,-0.025350908,-0.8017606,2.1432207
138,1778415803.4917932,0.44917256,0.8591965,0.1516552,0.038026363,-0.8744536,2.2122486
139,1778415803.5019057,0.4753326,0.8632211,0.21135378,0.019700404,-0.8597928,2.3127358
140,1778415803.5120323,0.48978466,0.87108743,0.2628202,-0.061391957,-0.75441855,2.3822217
141,1778415803.5221472,0.5260673,0.8755389,0.3030055,-0.2967278,-0.4636467,2.4535403
142,1778415803.5322797,0.5377753,0.8881616,0.30483487,-0.42562035,-0.28206703,2.4404066
143,1778415803.5423937,0.5975349,0.93237144,0.2494048,-0.59620446,-0.041080687,2.3445008
144,1778415803.5525327,0.6193654,0.95328736,0.22147635,-0.71593404,0.10308351,2.1832323
145,1778415803.562686,0.6107064,0.9185901,0.16866837,-0.7680103,0.13576481,2.0405953
146,1778415803.572862,0.5777776,0.860538,0.13561767,-0.70249504,0.049785517,1.9714148
147,1778415803.5831554,0.57015526,0.7971197,0.11262852,-0.538325,-0.10186178,1.9877555
148,1778415803.5932858,0.5950347,0.7805334,0.120921694,-0.3943135,-0.24251351,2.037541
149,1778415803.6034212,0.61088926,0.7650446,0.17251006,-0.27763826,-0.3733914,2.129171
150,1778415803.6135097,0.65692854,0.784558,0.21068303,-0.25900686,-0.39629883,2.1937697
151,1778415803.6236641,0.68156415,0.83041435,0.23513566,-0.28084528,-0.3275765,2.1513147
152,1778415803.6337721,0.70113844,0.8479763,0.2397701,-0.34330627,-0.21135938,2.0212004
153,1778415803.6440604,0.7299207,0.85815984,0.24251415,-0.40332377,-0.14110987,1.9252945
154,1778415803.654186,0.72888404,0.86742866,0.23178181,-0.54550266,0.029626964,1.6748397
155,1778415803.6643038,0.6939429,0.8084008,0.18799877,-0.657291,0.1085813,1.4937183
156,1778415803.6744187,0.6822349,0.708395,0.13415417,-0.7087564,0.070249505,1.4660766
157,1778415803.6845486,0.6594287,0.64735484,0.085980624,-0.6892087,-0.050549097,1.5378532
158,1778415803.6947675,0.6249145,0.6010107,0.04164877,-0.5572618,-0.31764993,1.6733127
159,1778415803.7050886,0.70699245,0.59954715,0.069028415,-0.32604933,-0.6433938,1.8161024
160,1778415803.7152164,0.77608186,0.649794,0.12299499,-0.12889257,-0.8434522,1.8700112
161,1778415803.7253435,0.8199868,0.71034634,0.19153556,0.060170226,-0.98914355,1.8153389
162,1778415803.73557,0.8462079,0.7104683,0.26391783,0.0729984,-0.95310247,1.7467692
163,1778415803.7456772,0.845781,0.69004023,0.28739482,-0.007788532,-0.81153446,1.7073684
164,1778415803.7558248,0.8501106,0.65979457,0.28995594,-0.21762075,-0.56688297,1.6975945
165,1778415803.76594,0.8120596,0.5987544,0.20976834,-0.6627888,-0.1928807,1.7172949
166,1778415803.7760608,0.8120596,0.5987544,0.20976834,-0.6627888,-0.1928807,1.7172949
167,1778415803.786188,0.7949854,0.54210484,0.14641099,-0.8136725,-0.1872302,1.7922786
168,1778415803.7963395,0.82834107,0.506432,0.10756725,-0.75533485,-0.32986724,1.8955148
169,1778415803.8065119,0.8551108,0.50881016,0.103115775,-0.5119051,-0.5458081,1.9721785
170,1778415803.8166752,0.87559986,0.491736,0.1153116,-0.2564107,-0.7111999,2.0282254
171,1778415803.8268812,0.94968957,0.51813996,0.18781583,0.03940081,-0.8587238,2.0909917
172,1778415803.8370662,0.94968957,0.51813996,0.18781583,0.17989981,-0.87766063,2.085952
173,1778415803.8471777,0.9581657,0.5416169,0.21440275,0.20616703,-0.81382525,2.0050125
174,1778415803.8572783,0.95523864,0.49679726,0.2326965,0.10048734,-0.6577492,1.9036088
175,1778415803.8674462,0.9448112,0.4300251,0.22385453,-0.15332718,-0.43569964,1.8623754
176,1778415803.8775425,0.9481041,0.31825027,0.15885073,-0.46975538,-0.18417588,1.9784398
177,1778415803.8876455,0.97822785,0.33672696,0.12409261,-0.45555276,-0.16493362,2.0517437
178,1778415803.89775,0.9941434,0.34441036,0.0962861,-0.45555276,-0.16493362,2.0517437
179,1778415803.9079447,0.9941434,0.34441036,0.0962861,-0.28695396,-0.27687466,2.122146
180,1778415803.918181,1.076953,0.36727753,0.082199916,-0.23197608,-0.34956762,2.0774
181,1778415803.928297,1.0955517,0.35849655,0.0962861,-0.23457226,-0.40133846,1.9659171
182,1778415803.9383976,1.1073817,0.32977533,0.12659276,-0.28023443,-0.41798455,1.89918
183,1778415803.948496,1.1123209,0.2961758,0.15787506,-0.3555236,-0.3839288,1.875509
184,1778415803.9586146,1.1123209,0.2961758,0.15787506,-0.3555236,-0.3839288,1.875509
185,1778415803.9687545,1.1231143,0.23580644,0.19324298,-0.5804747,-0.23793201,1.9685133
186,1778415803.9788764,1.1231143,0.23580644,0.19324298,-0.5804747,-0.23793201,1.9685133
187,1778415803.9889941,1.1965332,0.31526232,0.21732976,-0.71669763,-0.056199603,1.954158
188,1778415803.9990997,1.2408041,0.3312998,0.20098734,-0.7264715,-0.0056505036,1.7989981
189,1778415804.0092149,1.276355,0.33562934,0.18720604,-0.6974554,0.00030543262,1.6653714
190,1778415804.019341,1.296722,0.3565452,0.16513158,-0.61666846,-0.03634648,1.5140295
191,1778415804.0295315,1.331846,0.38910806,0.15994836,-0.61666846,-0.03634648,1.5140295
192,1778415804.039776,1.331846,0.38910806,0.15994836,-0.5180137,-0.15760323,1.3855951
193,1778415804.0498853,1.3422124,0.43850118,0.24958774,-0.43249258,-0.26068676,1.1362094
194,1778415804.0601656,1.3422124,0.43850118,0.24958774,-0.43249258,-0.26068676,1.1362094
195,1778415804.0702786,1.3245285,0.43722063,0.30946928,-0.47051895,-0.15683965,0.9078985
196,1778415804.0804083,1.2311084,0.38422972,0.36611894,-0.6027713,0.20555615,0.5684101
197,1778415804.0905244,1.1758003,0.33843437,0.33495858,-0.62109727,0.41309762,0.43188173
198,1778415804.1008296,1.1335417,0.30276155,0.28666306,-0.5520695,0.54305923,0.34804046
199,1778415804.1111298,1.0906124,0.26074693,0.2122075,-0.4454735,0.56291234,0.31642818
200,1778415804.1213722,1.06244,0.23775777,0.14970386,-0.28603765,0.4908302,0.30375275
201,1778415804.131594,1.0446951,0.23086715,0.113299295,-0.11224649,0.32834008,0.29810223
202,1778415804.141743,1.0362799,0.22885482,0.09439575,0.021380283,0.1647809,0.29657507
203,1778415804.1519182,1.0382923,0.23623328,0.10500612,0.14538592,0.0012217305,0.29016098
204,1778415804.1620748,1.0409144,0.2508683,0.1331785,0.2947425,-0.14676037,0.27382034
205,1778415804.1722078,1.0567081,0.2631251,0.15781409,0.41416663,-0.21242839,0.24556783
206,1778415804.182365,1.0675623,0.27727225,0.17568098,0.4550946,-0.21991149,0.21945333
207,1778415804.1925287,1.0710381,0.28995594,0.18580353,0.41615194,-0.17272215,0.18203785
208,1778415804.2026467,1.083295,0.29532212,0.19934091,0.2863431,-0.09117164,0.13439035
209,1778415804.2128556,1.0970762,0.30751795,0.21434177,0.15057829,0.0012217305,0.08827003
210,1778415804.2230546,1.1073208,0.32068944,0.20690231,-0.008552114,0.11056661,0.004276057
211,1778415804.233184,1.1184189,0.32697028,0.19220634,-0.10247265,0.15683965,-0.071776666
212,1778415804.2433438,1.1292123,0.3313608,0.20238985,-0.1685988,0.16920967,-0.1469131
213,1778415804.2535355,1.1284195,0.3358123,0.23251356,-0.2264783,0.19975294,-0.2527455
214,1778415804.2636652,1.1290903,0.32422623,0.2719671,-0.27687466,0.25900686,-0.35124752
215,1778415804.2739658,1.1244558,0.3077009,0.31733558,-0.33169982,0.3594942,-0.4288274
216,1778415804.2840962,1.1074426,0.30044436,0.32715324,-0.35720345,0.48731774,-0.50793445
217,1778415804.2943068,1.0951248,0.28971204,0.30928633,-0.32589662,0.57650405,-0.5839872
218,1778415804.3046188,1.0745139,0.2701987,0.2909926,-0.27030787,0.605062,-0.6273586
219,1778415804.314744,1.0636597,0.25745404,0.27849188,-0.18448131,0.6082691,-0.6575964
220,1778415804.3249092,1.0582324,0.25208786,0.269284,-0.11682798,0.58368176,-0.6693556
221,1778415804.335043,1.0504881,0.254588,0.27221102,-0.035888333,0.54473907,-0.68859786
222,1778415804.3451471,1.0514638,0.2584297,0.27263784,-0.0022907446,0.52641314,-0.70234233
223,1778415804.3552723,1.0505491,0.27166218,0.2789187,0.045814894,0.5007568,-0.7286095
224,1778415804.3654695,1.0579885,0.28434587,0.2967856,0.07467828,0.50426924,-0.7680103
225,1778415804.3755956,1.065367,0.28873634,0.30599347,0.07696902,0.5355761,-0.7985536
226,1778415804.3857825,1.0600009,0.30337137,0.29959065,0.057421334,0.559858,-0.82772243
227,1778415804.3959498,1.06244,0.31355488,0.3000175,0.03772093,0.5684101,-0.86299986
228,1778415804.4060652,1.077136,0.32038453,0.3081887,0.012980887,0.57818395,-0.9104946
229,1778415804.4162664,1.0850023,0.33160472,0.31538427,0.0041233404,0.5853616,-0.9469938
230,1778415804.4267051,1.1372614,0.36569205,0.32325056,0.00076358154,0.5804747,-1.0363328
231,1778415804.4367812,1.1372614,0.36569205,0.32325056,0.00076358154,0.5804747,-1.0363328
232,1778415804.4469342,1.1637264,0.40374306,0.32879966,-0.0071776668,0.56489766,-1.103528
233,1778415804.457098,1.1911061,0.43246427,0.33971494,-0.016646078,0.54321194,-1.1855367
234,1778415804.4673054,1.2576953,0.49393123,0.37508285,-0.038789943,0.5155703,-1.3272575
235,1778415804.4774141,1.2576953,0.49393123,0.37508285,0.035888333,0.45830166,-1.713477
236,1778415804.4875462,1.3087958,0.5027732,0.4375865,0.101098195,0.43860126,-1.8500054
237,1778415804.4976518,1.3305655,0.5125909,0.4972851,0.18203785,0.46593747,-2.0135646
238,1778415804.5077531,1.3356267,0.5243599,0.5302748,0.28496864,0.5520695,-2.20278
239,1778415804.517892,1.3372121,0.4908213,0.55863017,0.39446622,0.66355234,-2.3701572
240,1778415804.5282278,1.3372121,0.4908213,0.55863017,0.39446622,0.66355234,-2.3701572
241,1778415804.538342,1.3216015,0.49807784,0.55137366,0.58383447,0.87109387,-2.5932758
242,1778415804.548463,1.3121498,0.51509106,0.51435924,0.72097373,0.95233893,-2.7560713
243,1778415804.5585978,1.3121498,0.51509106,0.51435924,0.72097373,0.95233893,-2.7560713
244,1778415804.5686998,1.2679398,0.5174692,0.45027018,1.0865766,0.944245,-3.0717359
245,1778415804.5788088,1.2333037,0.48630884,0.45935607,1.1972959,0.8857546,-3.125492
246,1778415804.5889382,1.1983626,0.47271052,0.48630884,1.1491902,0.91247994,-3.1041117
247,1778415804.5990415,1.1642752,0.4932605,0.4897237,1.0503827,0.98670006,-3.07983
248,1778415804.609137,1.1642752,0.4932605,0.4897237,1.0503827,0.98670006,-3.07983
249,1778415804.619249,1.1112235,0.5140544,0.4066091,0.99021256,1.0315987,-3.0448577
250,1778415804.6293616,1.0490246,0.5388729,0.34587383,1.1119275,0.86208355,-3.037833
251,1778415804.6394684,1.0490246,0.5388729,0.34587383,1.1119275,0.86208355,-3.037833
252,1778415804.6496053,1.0103029,0.544361,0.38294917,1.2867876,0.6646214,-3.0288227
253,1778415804.6597302,0.9695078,0.5512517,0.40642616,1.3222178,0.6632469,-2.9998064
254,1778415804.6698422,0.9128582,0.56637454,0.38416874,1.3419182,0.713796,-2.9987376
255,1778415804.6799479,0.86809945,0.5506419,0.31343293,1.3745996,0.6979135,-2.9868257
256,1778415804.690085,0.849013,0.541373,0.3111157,1.3869696,0.6169739,-2.92467
257,1778415804.7002432,0.8093155,0.58241206,0.3460568,1.3863586,0.606131,-2.8597655
258,1778415804.7103605,0.7918145,0.6248535,0.33709285,1.3538301,0.6618725,-2.8716774
259,1778415804.7205257,0.7674228,0.62339,0.33233646,1.3101532,0.68859786,-2.887102
260,1778415804.7306612,0.70443135,0.6077794,0.3088595,1.2751812,0.7527387,-2.9013045
261,1778415804.740875,0.6427204,0.58289987,0.27129632,1.2695307,0.7696902,-2.8706086
262,1778415804.7510326,0.5834487,0.56045955,0.22543997,1.2832751,0.75396043,-2.81334
263,1778415804.7615695,0.5834487,0.56045955,0.22543997,1.2832751,0.75396043,-2.81334
264,1778415804.7718205,0.47874746,0.57936305,0.14494748,1.398576,0.495259,-2.6655104
265,1778415804.7819493,0.43886706,0.57363105,0.1636071,1.4553864,0.43218717,-2.6442828
266,1778415804.7920737,0.43539125,0.5725944,0.14952092,1.4434745,0.4166101,-2.6099217
267,1778415804.802191,0.4267322,0.60674274,0.16007032,1.3480269,0.40744713,-2.570979
268,1778415804.8123555,0.38727868,0.63211006,0.15616766,1.2255484,0.46120325,-2.5954137
269,1778415804.8224728,0.34666657,0.614548,0.13208087,1.1420126,0.50503284,-2.6091583
270,1778415804.832605,0.26788148,0.5935712,0.079029,1.1140655,0.5016731,-2.6039658
271,1778415804.842728,0.24184339,0.5662525,0.058844898,1.1363621,0.453262,-2.5357015
272,1778415804.8528578,0.17586392,0.56186205,0.03091644,1.199892,0.3817908,-2.4397957
273,1778415804.8630786,0.17732742,0.5638134,0.028965104,1.2614367,0.2910773,-2.302351
274,1778415804.8733203,0.18299848,0.62918305,0.05963763,1.2609786,0.25610524,-2.208125
275,1778415804.8834622,0.17476629,0.6764419,0.044331856,1.1896601,0.28787026,-2.2061398
276,1778415804.8937745,0.16940013,0.6910769,0.04183171,1.0900891,0.28955013,-2.211332
277,1778415804.9039059,0.1525089,0.7120538,0.06073525,0.9786061,0.30955598,-2.212554
278,1778415804.9141192,0.11799469,0.7218714,0.07927292,0.88163126,0.37995818,-2.2395847
279,1778415804.9243295,0.1323248,0.6976017,0.122202255,0.7867944,0.46731192,-2.2018638
280,1778415804.934603,0.08738314,0.725835,0.092505395,0.7151705,0.63545257,-2.1801782
281,1778415804.9447348,0.09159071,0.7379089,0.05110054,0.72433347,0.6739371,-2.14093
282,1778415804.9549503,0.047380816,0.7554099,-0.011586042,0.79443026,0.64461553,-2.1416936
283,1778415804.9651163,0.015915563,0.76943517,-0.06945527,0.9775371,0.45906523,-2.159714
284,1778415804.9752715,-0.02933098,0.78748494,-0.06451596,1.2070698,0.18768835,-2.2149973
285,1778415804.985591,-0.034880083,0.78467995,-0.0022562293,1.3377949,0.06994407,-2.3095288
286,1778415804.995708,-0.057381395,0.793156,0.06347931,1.2498302,0.12095132,-2.400395
287,1778415805.005806,-0.18952326,0.7221153,0.07896802,0.96852684,0.43967026,-2.5732698
288,1778415805.01598,-0.18952326,0.7221153,0.07896802,0.6310238,0.806953,-2.6842947
289,1778415805.026096,-0.30757892,0.66162395,-0.005793021,0.1863139,1.3388638,-2.8309023
290,1778415805.0364337,-0.42002448,0.59466887,-0.12128756,-0.100792766,1.7009543,-3.0036244
291,1778415805.0465484,-0.53698254,0.4422819,-0.32953143,-0.20662516,1.8474092,-3.2348368
292,1778415805.0568051,-0.7015653,0.17763232,-0.6459523,0.021533,1.5325081,-3.1677945
293,1778415805.066932,-0.86944103,0.04439283,-0.807974,0.49098295,0.65087694,-2.7736337
294,1778415805.077077,-0.9937775,0.0014635,-0.62241435,0.8686504,-0.1301143,-2.1571178
295,1778415805.087453,-1.0131688,-0.025428312,-0.41398758,0.9111055,-0.31703907,-1.5544994
296,1778415805.0975914,-0.9996925,0.047929626,-0.29574898,0.66889745,-0.10323623,-0.7858781
297,1778415805.1077368,-0.84450054,0.26294217,-0.43728164,-0.16340645,0.22006421,0.46609017
298,1778415805.1178327,-0.75858086,0.3617894,-0.45228252,-0.33261612,0.07880162,0.86162543
299,1778415805.127931,-0.65461135,0.4735032,-0.37746105,-0.40103304,-0.09682214,1.1470522
300,1778415805.1380243,-0.5043587,0.6310734,-0.23403804,-0.46120325,-0.14584407,1.3544409
301,1778415805.1481385,-0.5043587,0.6310734,-0.23403804,-0.46120325,-0.14584407,1.3544409
302,1778415805.1582906,-0.4499653,0.68473506,-0.20440216,-0.5166393,-0.11056661,1.3745996
303,1778415805.1684222,-0.3770952,0.76266646,-0.18665724,-0.59941155,-0.119729586,1.3387111
304,1778415805.1786258,-0.3559354,0.7832164,-0.15811898,-0.5882632,-0.21517728,1.3090842
305,1778415805.1887813,-0.36916786,0.7711426,-0.08165111,-0.37033707,-0.38148534,1.3495541
306,1778415805.1990552,-0.39447424,0.74687284,-0.061467,-0.23564127,-0.43050727,1.387275
307,1778415805.2091815,-0.4100849,0.7157125,-0.048600398,-0.15042557,-0.43463063,1.4181237
308,1778415805.2193193,-0.42520773,0.69089395,-0.03963646,-0.118507855,-0.39019018,1.43141
309,1778415805.2294507,-0.4463675,0.6518673,-0.06652827,-0.12782355,-0.31887165,1.4352279
310,1778415805.2395804,-0.46575886,0.600096,-0.117689796,-0.1600467,-0.26923886,1.4527903
311,1778415805.2499325,-0.46575886,0.600096,-0.117689796,-0.1600467,-0.26923886,1.4527903
312,1778415805.2602131,-0.47850356,0.5371045,-0.1887915,-0.18952094,-0.28237244,1.5424347
313,1778415805.2703514,-0.42045137,0.49984625,-0.25544173,-0.24633141,-0.35796702,1.7299703
314,1778415805.2804782,-0.42045137,0.49984625,-0.25544173,-0.3126103,-0.45891252,2.001042
315,1778415805.2905908,-0.29520014,0.59930325,-0.20592664,-0.44898596,-0.6968445,2.284636
316,1778415805.3009164,-0.24666072,0.6388177,-0.17226616,-0.49220467,-0.72189003,2.3486242
317,1778415805.311022,-0.1943406,0.6611971,-0.15702136,-0.45952338,-0.73532903,2.351984
318,1778415805.3211787,-0.17305888,0.6524161,-0.17799819,-0.39675698,-0.7779369,2.3475552
319,1778415805.3312907,-0.15256988,0.64796466,-0.17464434,-0.3098614,-0.8749117,2.3649647
320,1778415805.3416162,-0.09866429,0.6334516,-0.11494574,-0.2826779,-0.9605856,2.4611762
321,1778415805.3517852,-0.03738023,0.6320491,-0.050429773,-0.37583485,-0.92149025,2.588236
322,1778415805.361877,0.054576356,0.66278255,-0.0018293752,-0.5878051,-0.7851145,2.777757
323,1778415805.3719804,0.12604393,0.72516423,0.038355898,-0.8023715,-0.59574634,2.917187
324,1778415805.3820915,0.16604628,0.7738866,0.024330689,-0.9127854,-0.4251622,2.9393308
325,1778415805.3923354,0.2177566,0.813767,0.018049834,-0.86315256,-0.3578143,2.891225
326,1778415805.4024355,0.2499536,0.8259628,0.012012896,-0.75808376,-0.35720345,2.8437304
327,1778415805.4127781,0.24568506,0.8366952,0.028050419,-0.6693556,-0.33490688,2.7241535
328,1778415805.4229271,0.23397705,0.81870633,0.040307228,-0.67057735,-0.25045475,2.560289
329,1778415805.4331026,0.24245316,0.764008,0.007561417,-0.754724,-0.1740966,2.4659102
330,1778415805.4432418,0.29611483,0.67272216,-0.046588086,-0.9593639,-0.18860464,2.5094345
331,1778415805.4533887,0.34959355,0.6278415,-0.05286894,-1.0989466,-0.3819435,2.7345383
332,1778415805.4635942,0.4320984,0.6327199,-0.033721477,-1.0456486,-0.59330285,2.9735394
333,1778415805.4736905,0.51271284,0.69180864,0.06921136,-0.79320854,-0.88514376,3.278819
334,1778415805.4838192,0.61387724,0.75528795,0.18421806,-0.59849524,-0.9295842,3.3735032
335,1778415805.4939346,0.68357646,0.9119435,0.30270058,-0.4118759,-0.714865,3.2323935
336,1778415805.5040557,0.661502,0.99097246,0.33001924,-0.44959682,-0.2527455,2.8199067
337,1778415805.5141664,0.61088926,0.9495066,0.28038222,-0.6757697,0.08475755,2.4495697
338,1778415805.5242887,0.6579652,0.769801,0.13342242,-0.9295842,0.23319781,2.213623
339,1778415805.5344076,0.72821325,0.61649936,0.02268425,-0.9089675,-0.031001411,2.3672554
340,1778415805.5445378,0.76022726,0.5545445,0.017074168,-0.73945236,-0.38881573,2.6586382
341,1778415805.5546796,0.766874,0.57363105,0.07043094,-0.4605924,-0.82436264,3.033404
342,1778415805.564782,0.8240115,0.66412413,0.23800169,-0.27046058,-1.0002918,3.2220087
343,1778415805.5748994,0.9257858,0.8038274,0.43380582,-0.23900102,-0.79534656,3.2195654
344,1778415805.5851474,0.86450166,0.92926157,0.49502888,-0.48624873,-0.160963,2.8632782
345,1778415805.5952797,0.7957171,0.8977353,0.3111157,-0.8717047,0.37415496,2.3417518
346,1778415805.605404,0.7591906,0.78815573,0.05725944,-1.0102184,0.37827832,1.9456058
347,1778415805.6155372,0.8219382,0.5880221,-0.026647896,-0.820392,-0.026725354,1.8770362
348,1778415805.6256497,0.93889624,0.4610025,0.11232363,-0.6614143,-0.33505958,2.0694587
349,1778415805.6357725,1.0114005,0.48460147,0.25440508,-0.6598872,-0.4616614,2.4130704
350,1778415805.6458874,1.0180472,0.5324701,0.29544407,-0.73853606,-0.4382958,2.543643
351,1778415805.656049,1.0106688,0.64869636,0.41789025,-0.93218035,-0.24663684,2.5923593
352,1778415805.6661828,0.9723738,0.6707099,0.4417331,-1.1117748,0.10293079,2.4992025
353,1778415805.676298,0.8290728,0.646928,0.18946227,-1.1688906,0.36728272,2.3350325
354,1778415805.6867335,0.8290728,0.646928,0.18946227,-1.0050261,0.34223726,2.1277964
355,1778415805.6968713,0.8199868,0.59405905,0.06384519,-0.64736444,0.08689558,1.8926133
356,1778415805.7071075,0.9723128,0.4672224,0.06543065,-0.24327709,-0.63056564,1.7087429
357,1778415805.717242,1.0256087,0.43039095,0.20263378,-0.36117408,-0.80848014,1.8014416
358,1778415805.7273636,1.0256087,0.43039095,0.20263378,-0.36117408,-0.80848014,1.8014416
359,1778415805.7374914,1.0637816,0.41228014,0.41618282,-0.8571966,-0.42455134,2.0761783
360,1778415805.747793,1.0637816,0.41228014,0.41618282,-0.8571966,-0.42455134,2.0761783
361,1778415805.7581213,1.0046928,0.43350092,0.29611483,-1.0158689,-0.12797627,2.2007947
362,1778415805.7682598,1.0046928,0.43350092,0.29611483,-1.016938,-0.029168816,2.2484422
363,1778415805.77835,1.0201205,0.47271052,0.1572043,-0.47021353,-0.34330627,2.1519256
364,1778415805.7884517,1.0307308,0.47758886,0.14397182,-0.17745635,-0.59712076,1.9700404
365,1778415805.7985945,1.0405486,0.436184,0.17043677,-0.04016439,-0.7655669,1.8497
366,1778415805.808681,1.0514028,0.3626431,0.2209885,0.051159963,-0.8359691,1.8046486
367,1778415805.8187835,1.0592082,0.30666426,0.24757542,0.039095376,-0.7357872,1.8635972
368,1778415805.829045,1.0696965,0.29337075,0.20281671,-0.057726767,-0.6243043,1.9566014
369,1778415805.8391447,1.0792702,0.3035543,0.1676927,-0.13332134,-0.5888741,2.0161607
370,1778415805.8494897,1.0957347,0.3108108,0.14427671,-0.18875736,-0.5885687,2.0460932
371,1778415805.8598437,1.0957347,0.3108108,0.14427671,-0.18875736,-0.5885687,2.0460932
372,1778415805.8699455,1.1478108,0.35117903,0.122934,-0.23655757,-0.6209445,2.01219
373,1778415805.880054,1.2065948,0.38093686,0.16141187,-0.2322815,-0.7512115,1.7953329
374,1778415805.8901622,1.2154368,0.36782634,0.18482786,-0.22708915,-0.7489208,1.7035505
375,1778415805.900268,1.2159246,0.360021,0.18244967,-0.20830505,-0.75136423,1.6360499
376,1778415805.9103785,1.2159855,0.3556915,0.20043853,-0.15836681,-0.7686212,1.5462526
377,1778415805.920489,1.2190956,0.34794715,0.23111105,-0.122783914,-0.7483099,1.452943
378,1778415805.930587,1.2329378,0.34843495,0.26123476,-0.13041973,-0.68676525,1.3833044
379,1778415805.9406867,1.2476947,0.35581344,0.29373667,-0.20815234,-0.5367978,1.2901474
380,1778415805.9508069,1.2575123,0.37093627,0.3003834,-0.32834008,-0.37583485,1.1887437
381,1778415805.9612088,1.2575123,0.37093627,0.3003834,-0.32834008,-0.37583485,1.1887437
382,1778415805.9713264,1.2775136,0.38648596,0.2895291,-0.61193424,-0.0125227375,0.88132584
383,1778415805.9814677,1.2671471,0.37575364,0.27458918,-0.6585127,0.124005646,0.7425067
384,1778415805.991569,1.2503778,0.36496034,0.23525764,-0.6426302,0.1684461,0.61269784
385,1778415806.0016701,1.2409871,0.36788732,0.2148906,-0.5832236,0.13316862,0.5019785
386,1778415806.011799,1.2244008,0.36398467,0.21007323,-0.47357327,0.04810564,0.36377025
387,1778415806.0219054,1.2209859,0.35032532,0.21940304,-0.3717115,-0.01160644,0.26725355
388,1778415806.032052,1.2171441,0.3416053,0.23263553,-0.2591596,-0.06536258,0.15836681
389,1778415806.0421665,1.2215956,0.34111744,0.24574605,-0.1704314,-0.07788532,0.062002823
390,1778415806.0523047,1.2279985,0.34550798,0.25251475,-0.11285736,-0.03970624,-0.034055736
391,1778415806.0624106,1.2323279,0.34892282,0.2490999,-0.08536842,0.020463986,-0.11255192
392,1778415806.0725293,1.2269619,0.36111864,0.23879443,-0.0786489,0.10720685,-0.21762075
393,1778415806.0826464,1.2269619,0.36111864,0.23879443,-0.0786489,0.10720685,-0.21762075
394,1778415806.0928562,1.2195834,0.35624027,0.23397705,-0.14034629,0.2510656,-0.39920044
395,1778415806.1030607,1.2307425,0.3591063,0.22373258,-0.18203785,0.31520647,-0.4830417
396,1778415806.1131873,1.2390357,0.37855867,0.2133661,-0.19364429,0.35262197,-0.5758932
397,1778415806.1233082,1.2386088,0.3907545,0.21671996,-0.17027868,0.3849978,-0.68859786
398,1778415806.1334517,1.238121,0.39173016,0.22007383,-0.1337795,0.42210788,-0.8162687
399,1778415806.1436017,1.2367185,0.39325467,0.22397648,-0.10430524,0.45097128,-0.91553426
400,1778415806.153712,1.2395846,0.38691282,0.22013481,-0.0795652,0.46883908,-1.0025826
401,1778415806.1639974,1.2444628,0.38544932,0.22543997,-0.05971208,0.47235155,-1.0810788
402,1778415806.174131,1.24989,0.39764515,0.22976951,-0.027030786,0.47571132,-1.2063061
403,1778415806.1843927,1.258793,0.41618282,0.2403189,0.0009162979,0.4622723,-1.3277156
404,1778415806.1945257,1.2598907,0.41813415,0.26117378,0.021533,0.4801401,-1.4587462
405,1778415806.2047684,1.2565976,0.41282898,0.2909316,0.02321288,0.52473325,-1.5529722
406,1778415806.2149076,1.2590978,0.41386563,0.30257863,0.013133603,0.6020077,-1.6470454
407,1778415806.2251012,1.2606833,0.4211831,0.32099435,-0.01038471,0.6733262,-1.7322611
408,1778415806.2352872,1.2661715,0.4299641,0.33550736,-0.027641652,0.7528914,-1.8078557
409,1778415806.2454562,1.2490973,0.4475261,0.33111688,-0.039095376,0.84467393,-1.9078848
410,1778415806.2556994,1.2212907,0.45094094,0.32776302,-0.027488936,0.9228647,-2.0082195
411,1778415806.2658105,1.2056801,0.45094094,0.31959182,-0.015577064,0.95417154,-2.0560198
412,1778415806.2759147,1.1656168,0.4475261,0.30270058,0.02733622,0.9744828,-2.1348214
413,1778415806.2861743,1.1515306,0.44026962,0.31544524,0.06093381,0.9682214,-2.1742222
414,1778415806.2963023,1.1448839,0.4608196,0.35136196,0.0729984,1.0224357,-2.2122486
415,1778415806.3064265,1.1490915,0.46966153,0.39313272,0.06352998,1.1261301,-2.2463043
416,1778415806.3165483,1.1573236,0.49466303,0.4610635,-0.0025961774,1.3509285,-2.3211353
417,1778415806.326671,1.1515917,0.52588433,0.47252756,-0.065209866,1.667204,-2.4509442
418,1778415806.3367784,1.1358589,0.47600338,0.38246134,-0.13148874,1.9871446,-2.5966353
419,1778415806.3469222,1.1358589,0.47600338,0.38246134,-0.13148874,1.9871446,-2.5966353
420,1778415806.3571098,1.1159188,0.45685592,0.3033104,-0.054061573,1.9010127,-2.5706737
421,1778415806.36723,1.1017716,0.46856394,0.29843205,0.025503624,1.7788396,-2.5459337
422,1778415806.3773377,1.0786605,0.5207621,0.32593364,0.19517145,1.5824465,-2.5650232
423,1778415806.3874552,1.0454879,0.51856685,0.4165487,0.4709771,1.3939945,-2.6671903
424,1778415806.3975544,1.0271331,0.52637213,0.43850118,0.4709771,1.3939945,-2.6671903
425,1778415806.4076815,1.0046318,0.515213,0.43715966,0.6204864,1.3461943,-2.7226264
426,1778415806.4178014,0.98896015,0.49813882,0.42276856,0.66905016,1.3096951,-2.7059803
427,1778415806.4279227,0.9709713,0.51716435,0.42709813,0.6824892,1.2722796,-2.6633725
428,1778415806.4380176,0.9197487,0.5371655,0.41642675,0.68875057,1.2577715,-2.6413813
429,1778415806.4481325,0.87907565,0.5341775,0.37136313,0.7139487,1.1672108,-2.6064093
430,1778415806.4582255,0.8318778,0.56247187,0.3738023,0.75136423,1.0474812,-2.5604417
431,1778415806.4683366,0.8318778,0.56247187,0.3738023,0.75136423,1.0474812,-2.5604417
432,1778415806.4784403,0.7748013,0.5902783,0.35782576,0.8526152,0.9204212,-2.5541804
433,1778415806.4885387,0.7766917,0.6542455,0.41045076,1.0905472,0.5777258,-2.5705209
434,1778415806.4986498,0.78675324,0.6952845,0.45246542,1.1163563,0.49556443,-2.6198483
435,1778415806.5087783,0.7533366,0.72796935,0.48112562,1.0708468,0.52106804,-2.6928468
436,1778415806.5188987,0.7098585,0.7206518,0.45649004,0.9633345,0.6073528,-2.8249464
437,1778415806.5289865,0.67363685,0.66412413,0.45161173,0.85918194,0.6646214,-2.8360946
438,1778415806.5391498,0.60723054,0.6329638,0.44526988,0.7535023,0.75808376,-2.784782
439,1778415806.5493445,0.58753425,0.60759646,0.41435343,0.729984,0.7883216,-2.734233
440,1778415806.5594711,0.5584472,0.6147919,0.3506912,0.78984874,0.68676525,-2.6309967
441,1778415806.5695844,0.54125106,0.67808837,0.30953026,0.8943067,0.5305365,-2.6470318
442,1778415806.579736,0.54125106,0.67808837,0.30953026,0.8943067,0.5305365,-2.6470318
443,1778415806.5898361,0.61180395,0.82785314,0.40026724,1.0511464,0.27382034,-3.0589077
444,1778415806.6000838,0.5416169,0.8206576,0.40788963,0.95447695,0.43951756,-3.3635767
445,1778415806.610205,0.4818574,0.7363235,0.3808759,0.9221011,0.5674938,-3.5343137
446,1778415806.6204283,0.37916848,0.6159506,0.36983865,0.9088148,0.7809912,-3.5204165
447,1778415806.6305683,0.26641798,0.56417924,0.2713573,0.9795224,0.8940013,-3.4316883
448,1778415806.6407757,0.20690231,0.54216576,0.1870231,1.1134546,0.8547532,-3.2360587
449,1778415806.6509554,0.14683785,0.5577155,0.1516552,1.2211196,0.75655663,-3.0966287
450,1778415806.6610813,0.09384694,0.567899,0.09098092,1.3208433,0.64873886,-3.0010283
451,1778415806.6712139,0.079516836,0.55905706,0.052686002,1.3716979,0.4289801,-2.8782444
452,1778415806.6813354,0.051710334,0.5717407,0.05079565,1.351234,0.21930063,-2.7450757
453,1778415806.69149,0.011464084,0.63467115,0.062686585,1.3458889,0.080634214,-2.7096455
454,1778415806.7016256,-0.005366167,0.6630265,0.09128582,1.3281738,-0.00015271631,-2.7328584
455,1778415806.7117565,-0.061284065,0.658697,0.11927526,1.2974777,0.012064588,-2.7826438
456,1778415806.7218754,-0.102688916,0.62662196,0.13128816,1.294118,0.06154467,-2.791196
457,1778415806.732173,-0.16671704,0.59979105,0.11464083,1.3165673,0.13255776,-2.7667613
458,1778415806.742315,-0.19799936,0.5744847,0.107628234,1.3223705,0.16035213,-2.682462
459,1778415806.752448,-0.24098967,0.57936305,0.08439517,1.312444,0.17608191,-2.584418
460,1778415806.7625654,-0.26074693,0.6026571,0.025489293,1.3067935,0.16172658,-2.5439484
461,1778415806.7726877,-0.2944684,0.6313783,0.0035367915,1.2869403,0.08093964,-2.54517
462,1778415806.7828043,-0.32215294,0.6246096,0.023659917,1.2455542,0.05467244,-2.5447118
463,1778415806.793025,-0.3595332,0.6159506,0.047197875,1.1395692,0.12644911,-2.50806
464,1778415806.8032312,-0.3956938,0.6003399,0.04549046,0.98349303,0.27565295,-2.4365888
465,1778415806.8135314,-0.45441675,0.5827779,0.010793312,0.7959574,0.44791695,-2.362216
466,1778415806.823731,-0.48685768,0.5608254,-0.031770147,0.6647741,0.5572618,-2.31915
467,1778415806.833842,-0.54149497,0.5411291,-0.12726352,0.5561928,0.6096435,-2.2983804
468,1778415806.8440678,-0.5896686,0.50795645,-0.18866955,0.52549684,0.54473907,-2.292119
469,1778415806.854189,-0.6627216,0.43283013,-0.23172083,0.56031615,0.4082107,-2.2424862
470,1778415806.8644867,-0.70882183,0.3621553,-0.25788093,0.6224717,0.26328292,-2.1294763
471,1778415806.8746076,-0.772728,0.30959123,-0.25099024,0.6797403,0.095294975,-1.8880317
472,1778415806.8847291,-0.8291947,0.27849188,-0.22726935,0.7002043,-0.059101213,-1.5716035
473,1778415806.8948395,-0.8577939,0.25275865,-0.18373023,0.66248333,-0.14309518,-1.1725558
474,1778415806.9049861,-0.8734046,0.24983165,-0.18220575,0.5381723,-0.18219055,-0.72219545
475,1778415806.9151077,-0.8700507,0.26586917,-0.2061096,0.409127,-0.2452624,-0.3576616
476,1778415806.925234,-0.8274264,0.31946984,-0.18421806,0.2667954,-0.38423425,0.046120327
477,1778415806.9353712,-0.7911437,0.35556954,-0.16220458,0.16264287,-0.47036624,0.35537085
478,1778415806.9455004,-0.7510194,0.3999014,-0.14903308,0.115453534,-0.56062156,0.54290646
479,1778415806.9556665,-0.67949086,0.44917256,-0.099457026,0.10354166,-0.6666067,0.7509061
480,1778415806.9657779,-0.64558643,0.49454108,-0.07165052,0.15439619,-0.77656245,0.9300423
481,1778415806.9758892,-0.626439,0.5257624,-0.049515083,0.24495697,-0.8927795,1.0673343
482,1778415806.9860077,-0.5831438,0.5526542,0.005610083,0.37583485,-1.0079277,1.2530373
483,1778415806.9961388,-0.5477149,0.59466887,0.053844605,0.4550946,-1.0155635,1.4173601
484,1778415807.006257,-0.5152739,0.64143986,0.08555377,0.44333544,-0.93111134,1.5241088
485,1778415807.01649,-0.5068588,0.6639412,0.10482319,0.37766743,-0.7860308,1.5445728
486,1778415807.0266204,-0.5089321,0.66388017,0.08055348,0.2658791,-0.5670357,1.5239561
487,1778415807.036825,-0.5195425,0.6340614,0.02042802,0.19730948,-0.4605924,1.5161675
488,1778415807.0469494,-0.53814113,0.58564395,-0.06628435,0.17592919,-0.45799622,1.5641204
489,1778415807.057202,-0.5517395,0.5572277,-0.13122717,0.2454151,-0.5934556,1.6708691
490,1778415807.067329,-0.5308846,0.54692215,-0.15214302,0.34147367,-0.74464476,1.7896825
491,1778415807.077472,-0.49716315,0.564972,-0.14073992,0.42836925,-0.9007208,1.9475911
492,1778415807.0876627,-0.45502654,0.59814465,-0.11775078,0.42424592,-0.97784257,2.078469
493,1778415807.0977902,-0.3773391,0.6504648,-0.0074394583,0.16279559,-0.8206975,2.2745566
494,1778415807.1079116,-0.3527645,0.64564747,0.03237994,-0.2098322,-0.48334712,2.424524
495,1778415807.1180182,-0.31879908,0.6299758,0.00804925,-0.48395798,-0.2490803,2.5303566
496,1778415807.128144,-0.28062615,0.6483305,-0.0646989,-0.7247916,-0.095753126,2.6271787
497,1778415807.138718,-0.28062615,0.6483305,-0.0646989,-0.7247916,-0.095753126,2.6271787
498,1778415807.148913,-0.18257163,0.69534546,-0.15244792,-0.6218608,-0.3387248,2.6294694
499,1778415807.1591682,-0.18257163,0.69534546,-0.15244792,-0.6218608,-0.3387248,2.6294694
500,1778415807.1692967,-0.13567865,0.7109561,-0.13323948,-0.42302418,-0.5520695,2.625957
501,1778415807.179671,-0.09903017,0.74418974,-0.04841746,-0.17531833,-0.7512115,2.6390905
502,1778415807.1897738,0.017379062,0.75906867,0.11689706,-0.22434026,-0.59650993,2.8612928
503,1778415807.199993,0.028660208,0.78535074,0.11573846,-0.35140023,-0.42821655,2.9104674
504,1778415807.2101064,0.07683375,0.7994369,0.09598121,-0.45723262,-0.2828306,2.920394
505,1778415807.2202199,0.12933682,0.83931726,0.05860098,-0.40439278,-0.22892176,2.8403707
506,1778415807.230318,0.15598471,0.8830393,0.007622396,-0.23411411,-0.29626966,2.685669
507,1778415807.2404134,0.21330512,0.84395164,-0.016647313,0.07009678,-0.49220467,2.5195136
508,1778415807.2505105,0.25922245,0.81766963,0.017379062,0.37415496,-0.7121162,2.4929411
509,1778415807.2607305,0.28135788,0.7952903,0.06610142,0.52213705,-0.77442443,2.5231788
510,1778415807.2708626,0.26032007,0.7798626,0.13970327,0.70631295,-0.73792523,2.6045766
511,1778415807.2809684,0.25611252,0.7385187,0.18958424,0.75686204,-0.5911648,2.726597
512,1778415807.2910814,0.30245668,0.7219933,0.21092694,0.7133379,-0.39660427,2.8631253
513,1778415807.3011959,0.40587732,0.7949854,0.19549921,0.40866885,0.028405234,2.9671252
514,1778415807.311311,0.47271052,0.84346384,0.10006681,0.07238753,0.2678644,2.9133692
515,1778415807.3214974,0.5055173,0.8959059,0.011586042,-0.23716843,0.26710084,2.7757716
516,1778415807.3316655,0.5196035,0.8854785,-0.0778704,-0.19883664,0.029168816,2.6233609
517,1778415807.3417802,0.52966505,0.8684043,-0.10555494,0.20616703,-0.3987423,2.496301
518,1778415807.3518794,0.52966505,0.8684043,-0.10555494,0.20616703,-0.3987423,2.496301
519,1778415807.3619967,0.6417448,0.7819359,0.10616472,0.98944896,-0.7443393,2.664136
520,1778415807.3721359,0.6480866,0.8449273,0.1636071,1.0647382,-0.6301075,2.719725
521,1778415807.3822603,0.6694903,0.88694197,0.2338551,0.8011498,-0.13775012,2.761111
522,1778415807.392403,0.6619289,0.85084236,0.20391434,0.22937989,0.45265114,2.739578
523,1778415807.4025216,0.67107576,0.82071865,0.016769271,-0.31230485,0.79336125,2.7123945
524,1778415807.4126523,0.64491564,0.85584265,-0.2382456,-0.4196644,0.59483004,2.6557367
525,1778415807.4228275,0.6512575,0.8776122,-0.33373898,-0.08277224,-0.0125227375,2.4874432
526,1778415807.432948,0.71388316,0.87858784,-0.29410252,0.46486846,-0.5992588,2.2707388
527,1778415807.4430685,0.78352135,0.8569402,-0.110311314,0.754724,-0.820392,2.154827
528,1778415807.4531949,0.81620616,0.8188282,0.079516836,0.7139487,-0.6924158,2.133447
529,1778415807.4633253,0.81212056,0.80333954,0.14574021,0.4888449,-0.44623706,2.1642957
530,1778415807.4734786,0.822487,0.76297134,0.18684018,-0.057726767,0.08384126,2.2682953
531,1778415807.4835835,0.82888985,0.70741934,0.2177566,-0.6433938,0.6273586,2.462245
532,1778415807.4936907,0.89151543,0.7372991,0.069028415,-1.1542299,1.1294898,2.634509
533,1778415807.5038197,0.886881,0.87639266,-0.117140986,-1.2635747,1.0685561,2.5389087
534,1778415807.5139582,0.8631601,0.94542104,-0.20068243,-1.0343475,0.6270532,2.1774292
535,1778415807.5241,0.86877024,0.8539522,-0.12378771,-0.5795584,0.17455475,1.8173242
536,1778415807.5342414,0.8968816,0.7449215,-0.018110814,-0.2848159,-0.01282817,1.6869044
537,1778415807.5443776,0.91743153,0.6744906,0.10768921,-0.22983804,-0.0047342055,1.7145461
538,1778415807.5544913,0.8998086,0.6610142,0.19446257,-0.4222606,0.1881465,1.7767016
539,1778415807.5646763,0.88810056,0.6327808,0.2004995,-0.80664754,0.54000485,1.8299996
540,1778415807.5748198,0.89169836,0.6166213,0.15098442,-1.0864239,0.7296785,1.8770362
541,1778415807.585081,0.8825515,0.62326807,0.08043153,-1.2557862,0.77411896,1.9106338
542,1778415807.5952098,0.8851126,0.67430764,-0.004024625,-1.1859949,0.6374379,1.8008307
543,1778415807.6053252,0.8854785,0.69717485,-0.034819108,-1.0300715,0.43142357,1.6227635
544,1778415807.615503,0.89986956,0.6290611,0.03652652,-0.80649483,0.20219639,1.4280503
545,1778415807.6256392,0.936762,0.535641,0.13769096,-0.69913524,0.16417004,1.396438
546,1778415807.6357777,0.9465186,0.49130917,0.1510454,-0.73945236,0.22831088,1.450805
547,1778415807.645893,0.94310385,0.49277264,0.15299673,-0.84039783,0.25793785,1.5312865
548,1778415807.6560278,0.93249345,0.48112562,0.17446141,-0.88697636,0.279929,1.5942056
549,1778415807.6661425,0.9315177,0.47527164,0.18037638,-0.88163126,0.30390546,1.6223054
550,1778415807.6762807,0.95243365,0.47960114,0.17104656,-0.8597928,0.30268374,1.6270396
551,1778415807.6863823,1.0029244,0.5142983,0.21635409,-0.90576047,0.29810223,1.5271631
552,1778415807.696513,1.0029244,0.5142983,0.21635409,-0.90576047,0.29810223,1.5271631
553,1778415807.7066467,1.05994,0.4853332,0.1355567,-1.1024591,0.2640465,1.4054482
554,1778415807.7167788,1.05994,0.4853332,0.1355567,-1.1024591,0.2640465,1.4054482
555,1778415807.7269065,1.0626229,0.4555144,0.097322755,-0.75625116,-0.25518894,1.2617421
556,1778415807.7370062,1.0783556,0.4311837,0.1343371,-0.39950588,-0.59131753,1.2270756
557,1778415807.7471113,1.0850632,0.45325816,0.1911087,-0.04841107,-0.8223773,1.1756102
558,1778415807.7574866,1.0903075,0.46210015,0.25135612,0.17348573,-0.89476484,1.0923798
559,1778415807.7676165,1.0903075,0.46210015,0.25135612,0.17348573,-0.89476484,1.0923798
560,1778415807.777721,1.1071987,0.46027076,0.3179454,0.19883664,-0.8527679,1.0531317
561,1778415807.7878497,1.1138455,0.45795357,0.36800927,0.08552113,-0.6411031,0.9970848
562,1778415807.797951,1.1234802,0.4455748,0.2639788,-0.38789943,-0.16691893,0.93279123
563,1778415807.8080926,1.1128699,0.46002686,0.19147459,-0.51068336,-0.13133603,0.8752172
564,1778415807.8181932,1.135615,0.4604537,0.15976542,-0.47815478,-0.23396139,0.8051204
565,1778415807.8284276,1.1668974,0.46533203,0.17470531,-0.3651447,-0.34315357,0.75976366
566,1778415807.8385324,1.1900694,0.49948034,0.21525647,-0.204029,-0.44180828,0.680962
567,1778415807.8486407,1.1849471,0.52686,0.24428254,-0.07925977,-0.46654832,0.5511532
568,1778415807.858787,1.1929355,0.5332628,0.27678445,-0.02565634,-0.44409904,0.44043383
569,1778415807.8689191,1.1965332,0.53283596,0.3079448,-0.024892759,-0.37293324,0.34391713
570,1778415807.8791535,1.1965332,0.53283596,0.3079448,-0.024892759,-0.37293324,0.34391713
571,1778415807.8893964,1.1888498,0.53582394,0.3298363,-0.0917825,-0.22785273,0.24205536
572,1778415807.8994992,1.17702,0.53966564,0.30599347,-0.27259862,0.11560625,0.043676864
573,1778415807.9096074,1.1695803,0.541556,0.27928457,-0.3359759,0.22449298,-0.05955936
574,1778415807.9199462,1.1665314,0.535702,0.2579419,-0.35353827,0.26435193,-0.13637567
575,1778415807.9301004,1.1625068,0.529787,0.2409287,-0.32895094,0.26053402,-0.22464569
576,1778415807.9402473,1.1586041,0.5302748,0.23659918,-0.258396,0.22403483,-0.3061962
577,1778415807.9503715,1.1547015,0.52881134,0.240014,-0.19715676,0.19715676,-0.35338554
578,1778415807.9606252,1.1489694,0.54301953,0.25891754,-0.055436023,0.17211129,-0.48456886
579,1778415807.970732,1.1475669,0.55326396,0.26617405,-0.0125227375,0.18280143,-0.5534439
580,1778415807.980835,1.1364079,0.5542397,0.27495506,0.020463986,0.21746802,-0.6797403
581,1778415807.9910495,1.1276268,0.5416169,0.27458918,0.020463986,0.21746802,-0.6797403
582,1778415808.001309,1.1256144,0.5255185,0.26885715,-0.02565634,0.34315357,-0.8700248
583,1778415808.0114248,1.1202483,0.52356714,0.27080846,-0.054825157,0.3746131,-0.9051496
584,1778415808.0215404,1.1119552,0.5260063,0.26794246,-0.106137834,0.43768495,-0.9755518
585,1778415808.0316882,1.1114674,0.5260063,0.26501545,-0.118507855,0.4605924,-1.0108292
586,1778415808.0418124,1.1212239,0.54301953,0.26294217,-0.13744467,0.49449542,-1.1071932
587,1778415808.0521188,1.1232363,0.5615572,0.26477155,-0.12599096,0.5039638,-1.1820242
588,1778415808.0622437,1.1194556,0.56942344,0.28367507,-0.08811731,0.5363397,-1.2961034
589,1778415808.0724385,1.1214069,0.56210595,0.29196826,-0.056046885,0.5662721,-1.3796391
590,1778415808.082571,1.1170774,0.55576414,0.29690757,-0.02397646,0.5865834,-1.4654657
591,1778415808.0928154,1.1039059,0.55869114,0.30081022,0.004428773,0.59605175,-1.5428929
592,1778415808.1030297,1.0936614,0.5538738,0.3033104,0.025503624,0.5934556,-1.6140587
593,1778415808.1132092,1.0781727,0.55686176,0.32233587,0.026267206,0.6067419,-1.6667458
594,1778415808.1234927,1.0602448,0.5417999,0.34001982,0.007941248,0.6960809,-1.7324139
595,1778415808.1335914,1.0699404,0.52521354,0.33764166,-0.01863139,0.7480045,-1.7467692
596,1778415808.1437173,1.06555,0.5183839,0.3459348,-0.04734206,0.81581056,-1.7414241
597,1778415808.153833,1.0631719,0.51692045,0.34892282,-0.07788532,0.94989544,-1.7287487
598,1778415808.164012,1.0553665,0.53838503,0.34148335,-0.09819659,1.0126618,-1.7333301
599,1778415808.1741245,1.0393289,0.57344806,0.33843437,-0.099571034,1.0621419,-1.779756
600,1778415808.1842668,1.0417681,0.5812534,0.3398369,-0.07696902,1.093296,-1.8362609
601,1778415808.1943817,1.0364629,0.6163774,0.33672696,-0.03176499,1.0917689,-1.9260582
602,1778415808.2045624,1.0223768,0.6450986,0.33172667,0.043218717,1.0804679,-2.0589213
603,1778415808.214679,1.0004243,0.64704996,0.3211163,0.13500121,1.0305296,-2.2067506
604,1778415808.2248368,0.97786194,0.6197923,0.31355488,0.204029,0.9445504,-2.2883012
605,1778415808.2349575,0.9704834,0.5812534,0.30946928,0.28909197,0.8257371,-2.31747
606,1778415808.2450871,0.951458,0.5564349,0.3179454,0.38698313,0.6033822,-2.2282836
607,1778415808.2553165,0.92663944,0.69839436,0.3614845,0.45341474,0.6114761,-2.2618814
608,1778415808.2655206,0.90554065,0.6505867,0.35355723,0.5190827,0.55680364,-2.3397665
609,1778415808.2756946,0.9205415,0.62717074,0.3468495,0.4699081,0.51007247,-2.3661866
610,1778415808.2858083,0.9100531,0.6827837,0.3591673,0.35918877,0.46838093,-2.3848178
611,1778415808.295984,0.9210293,0.7286401,0.39240095,0.25686884,0.50640726,-2.4497223
612,1778415808.3061004,0.9183462,0.7569954,0.4238662,0.19058995,0.6151413,-2.5883887
613,1778415808.3165214,0.9079188,0.7252862,0.40709692,0.31749722,0.7254025,-2.694832
614,1778415808.3266563,0.86681885,0.6979676,0.37965629,0.31749722,0.7254025,-2.694832
615,1778415808.3370464,0.83120704,0.69558936,0.38276625,0.4908302,0.6907359,-2.6916249
616,1778415808.347373,0.8357805,0.68589365,0.4124631,0.60154957,0.70707655,-2.6658158
617,1778415808.3575025,0.7766307,0.6911989,0.38057098,0.7620544,0.70249504,-2.6306913
618,1778415808.3677063,0.7537025,0.71802974,0.36636284,0.82619524,0.6973027,-2.6387851
619,1778415808.377826,0.73485994,0.7466899,0.29867595,1.0042624,0.59620446,-2.7189612
620,1778415808.38799,0.6651608,0.7725451,0.29434645,1.2431108,0.37782016,-2.8562531
621,1778415808.3980923,0.55234927,0.73815286,0.3553256,1.4500414,0.30665436,-3.1007519
622,1778415808.4081938,0.48204032,0.70211416,0.33831242,1.4030048,0.42149702,-3.1514537
623,1778415808.4182928,0.4007551,0.6591848,0.29410252,1.2848023,0.54993147,-3.1537445
624,1778415808.4284823,0.32636052,0.6372323,0.24050182,1.2006557,0.61911196,-3.1149547
625,1778415808.4385839,0.292761,0.60491335,0.17226616,1.1603385,0.6218608,-3.022714
626,1778415808.448682,0.2648935,0.60491335,0.15580177,1.1417072,0.6062838,-2.9405525
627,1778415808.458783,0.22873287,0.6288172,0.13537374,1.0963504,0.5945246,-2.8507555
628,1778415808.4690514,0.22873287,0.6288172,0.13537374,1.0963504,0.5945246,-2.8507555
629,1778415808.4791543,0.2183664,0.6888207,0.17202222,0.91431254,0.64736444,-2.7742445
630,1778415808.4893034,0.2183664,0.6888207,0.17202222,0.91431254,0.64736444,-2.7742445
631,1778415808.4995267,0.083907336,0.75162923,0.07293109,0.768163,0.763887,-3.0198123
632,1778415808.5097497,0.045124583,0.6555871,0.0570765,0.8126035,0.70096785,-3.0289752
633,1778415808.5198658,0.0020123124,0.61467,0.0395145,0.90667677,0.6389651,-2.9307787
634,1778415808.5299842,-0.031709168,0.62339,0.014756958,1.0155635,0.5358815,-2.771801
635,1778415808.5402904,-0.047258858,0.6692464,0.0082321875,1.03786,0.41523564,-2.6644416
636,1778415808.5504138,-0.051710334,0.7091267,-0.019696271,1.0047206,0.34300083,-2.6532931
637,1778415808.5607224,-0.051710334,0.7091267,-0.019696271,1.0047206,0.34300083,-2.6532931
638,1778415808.570847,-0.08256579,0.75455624,0.016586334,0.8544478,0.19303341,-2.676506
639,1778415808.581113,-0.10299382,0.7443727,0.030367626,0.82359904,0.15821409,-2.698192
640,1778415808.5913637,-0.15208204,0.75711733,0.054820273,0.82359904,0.15821409,-2.698192
641,1778415808.601475,-0.19787739,0.7221153,0.07122366,0.7901542,0.21029036,-2.678186
642,1778415808.6117086,-0.2335502,0.72016394,0.060186442,0.7469355,0.2660318,-2.6642888
643,1778415808.6218195,-0.27410138,0.7016263,0.046832,0.66843927,0.3182608,-2.6670377
644,1778415808.632052,-0.33306822,0.67979574,0.054942228,0.5532912,0.4008803,-2.7049112
645,1778415808.642166,-0.36965573,0.6369274,0.061710916,0.44425175,0.51251596,-2.7488935
646,1778415808.65229,-0.43411067,0.56777704,0.06768687,0.29000828,0.7267769,-2.7704265
647,1778415808.6624136,-0.5119811,0.5068588,0.029452939,0.13026701,0.95325524,-2.7452285
648,1778415808.6725352,-0.5753385,0.44581872,-0.037075333,0.06719518,1.0764973,-2.703995
649,1778415808.682651,-0.6377811,0.3823394,-0.11622629,0.08628472,1.0885619,-2.6111436
650,1778415808.6930122,-0.7148588,0.30574957,-0.18946227,0.205098,0.95172805,-2.4167356
651,1778415808.7031336,-0.78492385,0.2437947,-0.22915971,0.42180246,0.6647741,-2.0621283
652,1778415808.713477,-0.8235237,0.22531801,-0.23623328,0.5459608,0.45066583,-1.7589865
653,1778415808.7236142,-0.8454151,0.21757366,-0.228306,0.62888575,0.21762075,-1.3417655
654,1778415808.7337227,-0.8585867,0.21903718,-0.22922069,0.61407226,0.04046982,-0.895223
655,1778415808.7438784,-0.8502325,0.237087,-0.22111045,0.538325,-0.08323039,-0.5177083
656,1778415808.753991,-0.8344999,0.27507702,-0.20824386,0.41279218,-0.17287487,-0.15454891
657,1778415808.7641232,-0.7995589,0.3302022,-0.16933915,0.20295998,-0.23304509,0.2452624
658,1778415808.7742424,-0.76315427,0.37563166,-0.12982465,-0.0025961774,-0.22342396,0.5580254
659,1778415808.7843914,-0.71967614,0.41264603,-0.12390967,-0.12156218,-0.21181752,0.77457714
660,1778415808.79451,-0.66406316,0.47106406,-0.13372731,-0.20631973,-0.29932398,1.0897835
661,1778415808.804682,-0.62302417,0.5182619,-0.137569,-0.19532417,-0.42470407,1.2852604
662,1778415808.814808,-0.5680819,0.5894856,-0.10512808,-0.1518,-0.6070473,1.502423
663,1778415808.8249786,-0.520945,0.6450986,-0.06378421,-0.10125092,-0.72784597,1.6620116
664,1778415808.8351076,-0.45270932,0.7309573,-0.004695396,-0.086132,-0.782213,1.7547104
665,1778415808.845216,-0.40740183,0.8090106,0.0515274,-0.0917825,-0.7386888,1.7609718
666,1778415808.8553224,-0.38124177,0.8573061,0.0954324,-0.12583824,-0.6035349,1.6685784
667,1778415808.8655655,-0.37044844,0.8704776,0.103115775,-0.1479821,-0.47311515,1.5673275
668,1778415808.875667,-0.3744121,0.8655993,0.08707825,-0.1423316,-0.33460143,1.4390458
669,1778415808.88576,-0.37800986,0.8494398,0.06433302,-0.11362094,-0.28160888,1.3715452
670,1778415808.8959856,-0.39630362,0.8118766,0.029148044,-0.041080687,-0.26633725,1.3341297
671,1778415808.9060836,-0.39630362,0.8118766,0.029148044,0.04138612,-0.29458976,1.3478742
672,1778415808.9162192,-0.39685243,0.8142548,0.017440042,0.10598512,-0.33826664,1.412015
673,1778415808.926483,-0.39971846,0.81431586,0.022318374,0.13683382,-0.36743546,1.4753923
674,1778415808.9366155,-0.3875226,0.81382793,0.029574897,0.14095716,-0.36254853,1.5291485
675,1778415808.9467473,-0.36111864,0.8210845,0.038172957,0.03145956,-0.20387627,1.6394095
676,1778415808.956954,-0.36111864,0.8210845,0.038172957,0.03145956,-0.20387627,1.6394095
677,1778415808.9670563,-0.35508168,0.81175464,-0.013842272,-0.124769226,-0.023365596,1.570229
678,1778415808.97732,-0.35508168,0.81175464,-0.013842272,-0.124769226,-0.023365596,1.570229
679,1778415808.9875104,-0.3514839,0.77315485,-0.054515377,-0.16982053,-0.0038179078,1.5364788
680,1778415808.9976454,-0.3459348,0.7268107,-0.0834195,-0.18784106,-0.06414085,1.5891659
681,1778415809.0077624,-0.33715382,0.6970529,-0.07890704,-0.15683965,-0.1908954,1.7342464
682,1778415809.0178628,-0.257515,0.7019312,-0.045185562,0.07223482,-0.45723262,2.2246184
683,1778415809.0279622,-0.1958041,0.7590077,-0.0073175007,0.1788308,-0.5349652,2.3764186
684,1778415809.0380666,-0.11872645,0.8434029,0.05512517,0.21456642,-0.50503284,2.4178047
685,1778415809.0482054,-0.06768687,0.90383315,0.09738373,0.098043874,-0.34513888,2.3151793
686,1778415809.058329,-0.06768687,0.90383315,0.09738373,0.098043874,-0.34513888,2.3151793
687,1778415809.0685737,-0.058357064,0.9160901,0.110860124,-0.02733622,-0.20586158,2.2015584
688,1778415809.0788734,-0.06104015,0.8497447,0.08695629,-0.31031954,0.11759156,1.9798143
689,1778415809.0889976,-0.051283482,0.76967907,0.030977417,-0.4793765,0.24404067,1.9828686
690,1778415809.0991375,0.023476979,0.7714474,-0.027196707,-0.6235407,0.1085813,2.3156374
691,1778415809.1092422,0.08646846,0.7948025,-0.010549396,-0.54534996,-0.04138612,2.4614816
692,1778415809.119391,0.12226323,0.837244,0.01097625,-0.420428,-0.18432859,2.5395195
693,1778415809.1294997,0.17574196,0.887003,0.051832296,-0.33857206,-0.25717425,2.526386
694,1778415809.1397064,0.22336671,0.93188363,0.10293283,-0.31031954,-0.25977045,2.434298
695,1778415809.1498206,0.25227082,0.957251,0.1197021,-0.3662137,-0.14859296,2.2380576
696,1778415809.1599345,0.25227082,0.957251,0.1197021,-0.4447099,-0.057726767,2.0983222
697,1778415809.1700437,0.295627,0.86694086,0.056344748,-0.5290093,-0.0777326,2.0551033
698,1778415809.1803703,0.295627,0.86694086,0.056344748,-0.5290093,-0.0777326,2.0551033
699,1778415809.1906092,0.29001692,0.8410857,0.030245667,-0.36942077,-0.31016684,2.1314616
700,1778415809.2008698,0.31446958,0.7704108,0.07097975,-0.15561792,-0.45234573,2.249053
701,1778415809.21106,0.38477856,0.807913,0.078785084,0.05222898,-0.56077427,2.3483188
702,1778415809.2212338,0.4228905,0.87468517,0.07189444,0.15836681,-0.6301075,2.3275492
703,1778415809.2315001,0.46112445,0.895662,0.1042134,0.15470162,-0.6398814,2.207667
704,1778415809.2416763,0.49155307,0.8587086,0.15683842,-0.0070249503,-0.5172501,2.1079433
705,1778415809.251895,0.5027732,0.8206576,0.17165637,-0.21227567,-0.32070425,2.0857995
706,1778415809.262216,0.4944191,0.7968148,0.1630583,-0.3481932,-0.19333886,2.1277964
707,1778415809.2723463,0.48850408,0.78022844,0.15586275,-0.4014912,-0.10369437,2.1994202
708,1778415809.2824633,0.52198166,0.7665081,0.14073992,-0.36361754,-0.04352415,2.3116667
709,1778415809.2925742,0.55350786,0.7971197,0.0898833,-0.2855795,-0.056046885,2.3597724
710,1778415809.3027484,0.6184507,0.85651344,0.09457869,-0.2501493,-0.10934488,2.3006713
711,1778415809.3130696,0.6678439,0.8750511,0.120067984,-0.35201108,-0.09789115,2.17804
712,1778415809.323193,0.68473506,0.86767256,0.08604161,-0.45142943,-0.08659015,2.0567832
713,1778415809.333314,0.6810154,0.8466348,0.03945352,-0.43508878,-0.21212296,1.9388863
714,1778415809.3434372,0.6624167,0.7959611,0.04323423,-0.21471913,-0.43050727,1.9033034
715,1778415809.353544,0.6561358,0.7579711,0.0658575,0.020005837,-0.5920811,1.9338466
716,1778415809.3637934,0.6524161,0.72492033,0.117140986,0.2846632,-0.7130325,2.0263927
717,1778415809.373908,0.66186786,0.72303,0.15360652,0.37873647,-0.71593404,2.0928242
718,1778415809.384134,0.66186786,0.72303,0.15360652,0.37873647,-0.71593404,2.0928242
719,1778415809.3942637,0.76406896,0.860599,0.25214887,0.016035212,-0.19883664,2.0482311
720,1778415809.4045455,0.7718743,0.85767204,0.25403923,-0.4240932,0.24480425,1.8073975
721,1778415809.4146852,0.7716913,0.78583854,0.1615948,-0.819323,0.5907067,1.6282613
722,1778415809.4249191,0.7457752,0.7277254,0.07689473,-0.9818132,0.68676525,1.5749633
723,1778415809.4350786,0.71437097,0.64467174,-0.021220751,-0.9505063,0.5720753,1.6136005
724,1778415809.445331,0.7040655,0.5860708,-0.09671296,-0.700357,0.20769419,1.7379116
725,1778415809.4555297,0.7194932,0.5699113,-0.12781233,-0.40194935,-0.19425514,1.8541287
726,1778415809.465669,0.7533366,0.60259616,-0.09750569,0.012064588,-0.7115053,1.9410243
727,1778415809.4759877,0.7682766,0.63528097,-0.053478733,0.2938262,-1.0351112,1.9156734
728,1778415809.4861052,0.80736417,0.6832106,0.040002335,0.49235737,-1.2449434,1.7666223
729,1778415809.49637,0.83181685,0.70918775,0.12970269,0.50671273,-1.0835222,1.2846496
730,1778415809.5064924,0.8201698,0.66638035,0.15677744,0.50671273,-1.0835222,1.2846496
731,1778415809.516812,0.7873021,0.5762531,0.15452121,0.4279111,-0.8407033,1.1389582
732,1778415809.526924,0.8003516,0.38849828,0.11232363,0.17592919,-0.4605924,1.319469
733,1778415809.5372033,0.8003516,0.38849828,0.11232363,0.17592919,-0.4605924,1.319469
734,1778415809.547446,0.889991,0.386303,0.019574312,-0.018478673,-0.36774087,1.5980235
735,1778415809.5575564,0.889991,0.386303,0.019574312,-0.15057829,-0.4260785,1.8819231
736,1778415809.5677993,0.98713076,0.44618458,0.026160065,-0.22815818,-0.5172501,2.0709858
737,1778415809.5779097,1.0248158,0.50563926,0.03195308,-0.2527455,-0.6713409,2.1248949
738,1778415809.588085,1.0704893,0.5992423,0.059942525,-0.2527455,-0.6713409,2.1248949
739,1778415809.5981863,1.1089061,0.6149139,0.122934,-0.15149458,-0.6780604,1.939039
740,1778415809.6083198,1.0996983,0.59107107,0.13573962,-0.106901415,-0.54092115,1.7197384
741,1778415809.618537,1.0868317,0.5515566,0.12384869,-0.17608191,-0.41386122,1.6374242
742,1778415809.6286628,1.0868317,0.5515566,0.12384869,-0.24144448,-0.31337386,1.596649
743,1778415809.6387866,1.0735382,0.47746688,0.122934,-0.31963524,-0.23701571,1.617113
744,1778415809.6489363,1.0851853,0.4730764,0.116592176,-0.39400807,-0.17501289,1.6534595
745,1778415809.6591794,1.1046985,0.50862724,0.10799411,-0.4653266,-0.120493166,1.6578883
746,1778415809.6693423,1.117992,0.5524712,0.111591876,-0.49480084,-0.0804815,1.5897768
747,1778415809.679445,1.1248827,0.5622279,0.117811754,-0.4990769,-0.04550946,1.5079209
748,1778415809.6897109,1.1248827,0.5622279,0.117811754,-0.4990769,-0.04550946,1.5079209
749,1778415809.6998482,1.1393958,0.55393475,0.10714039,-0.49495357,-0.0009162979,1.4075862
750,1778415809.7099812,1.1617141,0.56509393,0.0831146,-0.41218132,-0.056963183,1.231657
751,1778415809.720157,1.1691536,0.56271577,0.11134796,-0.34513888,-0.09468412,1.1575897
752,1778415809.73027,1.164946,0.5578984,0.14494748,-0.2828306,-0.073303826,1.0713049
753,1778415809.740392,1.153299,0.5427756,0.15677744,-0.24556783,-0.0012217305,0.98670006
754,1778415809.7506058,1.1411031,0.541373,0.15732625,-0.23258694,0.067500606,0.92179567
755,1778415809.7608273,1.13281,0.5505809,0.14756958,-0.24388795,0.14828753,0.8338311
756,1778415809.7709565,1.1268951,0.55350786,0.14220342,-0.28191432,0.21594086,0.74388117
757,1778415809.781079,1.1248218,0.5457026,0.11890938,-0.34330627,0.2753475,0.64660084
758,1778415809.7911808,1.127017,0.5338726,0.075675145,-0.40118575,0.2864958,0.54443365
759,1778415809.8013077,1.127017,0.5338726,0.075675145,-0.40118575,0.2864958,0.54443365
760,1778415809.811427,1.1166505,0.5372875,0.050856624,-0.36545014,0.1777618,0.42531493
761,1778415809.8215444,1.1143333,0.5046636,0.09244442,-0.14126259,-0.010537425,0.26984972
762,1778415809.8317146,1.1110405,0.49893156,0.12214127,-0.029168816,-0.049632803,0.22204952
763,1778415809.8418293,1.0975641,0.50283426,0.13970327,0.027488936,-0.042760566,0.17745635
764,1778415809.8519938,1.1010399,0.50624907,0.15037462,0.04886922,-0.005497787,0.11377365
765,1778415809.8621154,1.1078695,0.5086882,0.15616766,0.03390302,0.058490347,0.038026363
766,1778415809.872249,1.1098208,0.5125909,0.15177715,0.009468411,0.11530081,-0.02275473
767,1778415809.8823717,1.1102476,0.51942056,0.13616648,-0.007941248,0.16355917,-0.09101892
768,1778415809.8926384,1.1179311,0.5227744,0.11762882,-0.015882496,0.19501872,-0.18020524
769,1778415809.902745,1.1168944,0.52759176,0.09811548,0.0070249503,0.18387043,-0.3016147
770,1778415809.9130049,1.1119552,0.52124995,0.09671296,0.039858956,0.15592335,-0.40103304
771,1778415809.923131,1.1100647,0.5105786,0.10457927,0.062155537,0.13652839,-0.4662429
772,1778415809.9332867,1.1008569,0.5008829,0.11976309,0.085673854,0.13881913,-0.536187
773,1778415809.9434333,1.0911613,0.49161404,0.12811723,0.09987647,0.16523905,-0.59742624
774,1778415809.953583,1.0867708,0.49161404,0.13104422,0.10064005,0.18325958,-0.6414085
775,1778415809.9637938,1.0823803,0.49600452,0.13153206,0.09056077,0.21105394,-0.7049385
776,1778415809.9739168,1.0721967,0.49752906,0.13982524,0.0804815,0.23762658,-0.7611381
777,1778415809.9840524,1.0673184,0.49069935,0.14086188,0.074067414,0.2762638,-0.81489426
778,1778415809.9941814,1.0662817,0.48143053,0.13458103,0.06765333,0.3136793,-0.862389
779,1778415810.0043442,1.0526224,0.4809427,0.13073933,0.06505715,0.34025195,-0.9014844
780,1778415810.0144536,1.0462196,0.48234522,0.118604474,0.07086037,0.35338554,-0.93951076
781,1778415810.0245774,1.0442683,0.4852722,0.117140986,0.066737026,0.34987307,-0.9761627
782,1778415810.0347216,1.0335969,0.4941142,0.12153149,0.0627664,0.35827246,-1.0274754
783,1778415810.044857,1.0331091,0.49258974,0.11909231,0.056199603,0.36667186,-1.078788
784,1778415810.0549922,1.0349995,0.49063838,0.117140986,0.049785517,0.36193767,-1.1117748
785,1778415810.0651238,1.0277429,0.49167505,0.12445848,0.05177083,0.355829,-1.1484267
786,1778415810.075523,1.0229255,0.49460202,0.12787332,0.05879578,0.35216382,-1.1742357
787,1778415810.085773,1.0190839,0.50191957,0.13708118,0.0777326,0.36056322,-1.2234104
788,1778415810.0959744,1.0103029,0.5053344,0.1419595,0.089491755,0.3810272,-1.2809844
789,1778415810.106119,1.0089004,0.5010049,0.15464316,0.08307768,0.40866885,-1.3213016
790,1778415810.1165545,0.9973143,0.52881134,0.15939954,0.04886922,0.5149594,-1.4161384
791,1778415810.126646,0.9973143,0.52881134,0.15939954,0.04886922,0.5149594,-1.4161384
792,1778415810.1367438,1.0108516,0.5336287,0.13689823,0.038789943,0.5513059,-1.4735597
793,1778415810.1468544,1.018657,0.5458245,0.14019111,0.033444874,0.5331327,-1.512655
794,1778415810.1569624,1.018657,0.5458245,0.14019111,0.033444874,0.5331327,-1.512655
795,1778415810.1671112,1.0217669,0.5833877,0.15604569,0.045814894,0.49449542,-1.5838208
796,1778415810.177388,1.0217669,0.5833877,0.15604569,0.045814894,0.49449542,-1.5838208
797,1778415810.187518,1.0198766,0.5985105,0.1612899,0.08399397,0.4653266,-1.6368134
798,1778415810.1977475,1.0117054,0.61363333,0.17293692,0.14966199,0.42394048,-1.7146988
799,1778415810.20787,0.97828877,0.6249145,0.2133661,0.22464569,0.43310347,-1.8671097
800,1778415810.2179692,0.9652392,0.6210728,0.22604977,0.20998493,0.49235737,-1.9109392
801,1778415810.2280855,0.95834863,0.62399983,0.21830542,0.17852537,0.5467244,-1.9314032
802,1778415810.238171,0.9412134,0.63759816,0.20123126,0.13973543,0.5879578,-1.9517145
803,1778415810.2482705,0.9440795,0.6493062,0.18562058,0.12736541,0.571159,-1.9650007
804,1778415810.2583704,0.948531,0.6682707,0.18305947,0.14401148,0.5180137,-1.97508
805,1778415810.2684898,0.92572474,0.70241904,0.18970619,0.17486018,0.47555858,-2.0109684
806,1778415810.278588,0.930603,0.7253472,0.1876329,0.21762075,0.4173737,-2.0738876
807,1778415810.288692,0.930603,0.7253472,0.1876329,0.21762075,0.4173737,-2.0738876
808,1778415810.2988126,0.92974937,0.7370552,0.20556077,0.22296582,0.3811799,-2.1229095
809,1778415810.3090081,0.87724626,0.75321466,0.21684194,0.19624045,0.37766743,-2.2511911
810,1778415810.3191268,0.86218446,0.74888515,0.22958656,0.20326541,0.3848451,-2.2695172
811,1778415810.3293204,0.8539522,0.7601053,0.23489174,0.2264783,0.41126502,-2.2721133
812,1778415810.3395808,0.82773125,0.7771795,0.24214828,0.22525656,0.43661594,-2.281887
813,1778415810.3496902,0.7963879,0.793217,0.21592724,0.22495113,0.4654793,-2.3307564
814,1778415810.3598273,0.778704,0.7888265,0.19610901,0.23548855,0.43417248,-2.356718
815,1778415810.3699703,0.7562637,0.8024858,0.1829375,0.2761111,0.3567453,-2.3791673
816,1778415810.3800788,0.7363235,0.8127304,0.18196183,0.3118467,0.29978213,-2.405282
817,1778415810.3902001,0.69693094,0.822548,0.19421865,0.33292156,0.25992316,-2.4582744
818,1778415810.4003158,0.6472329,0.8259628,0.19684075,0.36025777,0.26206118,-2.5233316
819,1778415810.4104142,0.59741294,0.805047,0.18696213,0.42149702,0.2762638,-2.5851817
820,1778415810.4205668,0.5490564,0.7836433,0.18434003,0.5207626,0.26725355,-2.6068676
821,1778415810.430682,0.51106644,0.76565444,0.1870231,0.63499445,0.26542094,-2.5897632
822,1778415810.4408195,0.46911272,0.7539464,0.1853157,0.71883565,0.27458394,-2.570979
823,1778415810.4509475,0.4300251,0.7544343,0.16988796,0.79183406,0.2874121,-2.5605943
824,1778415810.461165,0.4036211,0.7539464,0.16220458,0.82344633,0.2921463,-2.5560129
825,1778415810.471269,0.34550798,0.73888457,0.14354497,0.84406304,0.3016147,-2.5550966
826,1778415810.4814084,0.31178647,0.7315671,0.1334834,0.8527679,0.31978795,-2.5563183
827,1778415810.4916158,0.25471,0.72278607,0.117689796,0.84421575,0.3463606,-2.5659394
828,1778415810.5017612,0.21434177,0.6769298,0.07238227,0.84329945,0.3715588,-2.5512786
829,1778415810.5118897,0.19921893,0.6637582,0.066223375,0.7993172,0.3080288,-2.4284947
830,1778415810.5220459,0.15537491,0.68382037,0.071589544,0.7480045,0.3287982,-2.350915
831,1778415810.5321531,0.15732625,0.69010127,0.06475988,0.701426,0.3471242,-2.2977695
832,1778415810.5422695,0.10464026,0.7096146,0.050246835,0.66691214,0.37995818,-2.249664
833,1778415810.5524185,0.10732334,0.68564975,0.0065857503,0.6797403,0.35811976,-2.1704042
834,1778415810.562626,0.10153031,0.7095536,0.013293459,0.66828656,0.2750421,-2.054187
835,1778415810.5728471,0.095920235,0.7646788,0.03195308,0.6339254,0.23182335,-1.9364429
836,1778415810.582976,0.10232304,0.79248524,0.040002335,0.58459806,0.2237294,-1.8930714
837,1778415810.59329,0.10543298,0.8387685,0.04701494,0.4831944,0.23747386,-1.8565722
838,1778415810.6034195,0.10348164,0.8714533,0.039026666,0.41630468,0.24877487,-1.8680259
839,1778415810.6135523,0.08689531,0.88992995,0.026830835,0.3904956,0.24037547,-1.9069686
840,1778415810.6236818,0.08152915,0.88218564,0.02786748,0.38789943,0.21517728,-1.9081903
841,1778415810.6337938,0.06786981,0.8875518,0.038599815,0.38453966,0.1777618,-1.8507689
842,1778415810.6440077,0.06854059,0.92023665,0.0515274,0.3764457,0.1572978,-1.806634
843,1778415810.6541266,0.058783915,0.9489578,0.04164877,0.3846924,0.14889841,-1.8177823
844,1778415810.664255,0.073540874,0.9587145,0.055186145,0.37873647,0.113926366,-1.7994562
845,1778415810.674402,0.047807667,0.99048465,0.06140602,0.36147952,0.10919216,-1.8176296
846,1778415810.684651,0.028782167,1.0109127,0.054027542,0.36575556,0.112704635,-1.8800905
847,1778415810.6947758,-0.004268542,1.0095102,0.06390616,0.43295074,0.10140363,-2.0630445
848,1778415810.705034,-0.041038983,0.9607878,0.04439283,0.5021312,0.10338894,-2.191021
849,1778415810.7151635,-0.072443254,0.9212733,0.026769854,0.57650405,0.07162395,-2.257758
850,1778415810.7253077,-0.11098208,0.91639495,0.016708292,0.6580546,0.004886922,-2.304031
851,1778415810.7355287,-0.15403338,0.8896251,0.00048783334,0.73731434,-0.034208454,-2.35626
852,1778415810.7456522,-0.19501138,0.8720631,-0.0031099375,0.81397796,-0.09972375,-2.4268148
853,1778415810.7559948,-0.25653934,0.83169484,-0.0046344167,0.8770498,-0.09773844,-2.5450172
854,1778415810.7662213,-0.30782285,0.77516717,-0.0026221042,0.91522884,-0.07620544,-2.6224444
855,1778415810.7764878,-0.37374133,0.7016263,0.009268833,0.91919947,-0.007483099,-2.6320655
856,1778415810.786741,-0.43032995,0.6436961,0.020549979,0.88438016,0.14462234,-2.566703
857,1778415810.7970479,-0.47966215,0.5994252,0.020976834,0.8445212,0.27397305,-2.5001187
858,1778415810.8071725,-0.5753994,0.49887055,-0.07390675,0.6105598,0.7819075,-2.2925773
859,1778415810.8172715,-0.60521823,0.45874628,-0.17470531,0.47433686,0.9117164,-2.156507
860,1778415810.8274486,-0.6486354,0.4425258,-0.24446549,0.36560285,0.9243918,-2.0073032
861,1778415810.83763,-0.6782103,0.43319598,-0.30660325,0.24953845,0.82863873,-1.7909042
862,1778415810.8477566,-0.6782103,0.43319598,-0.30660325,0.24953845,0.82863873,-1.7909042
863,1778415810.857864,-0.7351648,0.4253297,-0.37489992,0.20082195,0.63713247,-1.572978
864,1778415810.868189,-0.7653495,0.40880433,-0.36447248,0.25137106,0.20769419,-1.1213958
865,1778415810.878291,-0.7755331,0.403926,-0.35130098,0.2753475,0.08811731,-0.956615
866,1778415810.8884125,-0.7755331,0.403926,-0.35130098,0.2753475,0.08811731,-0.956615
867,1778415810.8985388,-0.7888265,0.39240095,-0.27672347,0.26908615,-0.18661933,-0.32925636
868,1778415810.9086592,-0.77199626,0.40173078,-0.23257454,0.20250183,-0.20906863,-0.05207626
869,1778415810.9187639,-0.74114084,0.4314886,-0.21781757,0.13775012,-0.20738874,0.14187345
870,1778415810.9288847,-0.71430993,0.4679541,-0.23318435,0.03772093,-0.27320948,0.3727805
871,1778415810.9390519,-0.68400335,0.4952728,-0.22909874,-0.013591751,-0.34513888,0.49189925
872,1778415810.9492972,-0.65857506,0.512347,-0.21373199,-0.04428773,-0.45112398,0.643852
873,1778415810.9594247,-0.64235455,0.5323481,-0.19787739,-0.03863723,-0.54153204,0.7733554
874,1778415810.9695745,-0.64235455,0.5323481,-0.19787739,-0.0071776668,-0.6441574,0.9502009
875,1778415810.9797742,-0.62064594,0.55625194,-0.1674488,-0.0071776668,-0.6441574,0.9502009
876,1778415810.990097,-0.60137653,0.5807046,-0.124885336,0.038789943,-0.6974554,1.0940597
877,1778415811.0002708,-0.5900344,0.5924126,-0.10360361,0.061391957,-0.69027776,1.1575897
878,1778415811.0103767,-0.56643546,0.6007668,-0.072565205,0.066737026,-0.5358815,1.2470814
879,1778415811.02057,-0.562045,0.57978994,-0.0661624,0.0022907446,-0.44638976,1.2869403
880,1778415811.0306833,-0.562045,0.56661844,-0.05927175,-0.076816306,-0.37827832,1.352761
881,1778415811.0408545,-0.5605815,0.5505809,-0.056222793,-0.16875152,-0.2958115,1.4479034
882,1778415811.0509975,-0.5478978,0.55009305,-0.046588086,-0.32604933,-0.1863139,1.6614008
883,1778415811.0612268,-0.53808016,0.55741054,-0.044209898,-0.42241332,-0.106137834,1.8141171
884,1778415811.0713959,-0.51228595,0.5632036,-0.045856334,-0.52656585,-0.025961773,2.0270035
885,1778415811.0815792,-0.47368616,0.58515614,-0.037807085,-0.6041457,0.030085113,2.2371411
886,1778415811.091709,-0.44624552,0.6104625,-0.023964813,-0.6404922,0.076052725,2.3328943
887,1778415811.1021535,-0.44624552,0.6104625,-0.023964813,-0.6404922,0.076052725,2.3328943
888,1778415811.1124673,-0.44624552,0.6104625,-0.023964813,-0.6404922,0.076052725,2.3328943
889,1778415811.1225784,-0.35160586,0.66205084,-0.02853825,-0.7125743,0.20799962,2.5761714
890,1778415811.132701,-0.27208906,0.7019922,-0.034880083,-0.7141015,0.20937407,2.6691756
891,1778415811.1428382,-0.2506244,0.71168786,-0.033111688,-0.7076874,0.1742493,2.7203357
892,1778415811.1530278,-0.19836523,0.72778636,-0.021708583,-0.70371675,0.1441642,2.7655396
893,1778415811.1631594,-0.14263028,0.74778754,0.008598062,-0.711658,0.13332134,2.8365529
894,1778415811.1732936,-0.08152915,0.76870334,0.028660208,-0.7325801,0.16371189,2.912758
895,1778415811.1834154,-0.048234522,0.79309505,0.041038983,-0.77182823,0.1928807,2.9743028
896,1778415811.1935449,0.0041465834,0.84084177,0.069760166,-0.84864455,0.24877487,3.0143147
897,1778415811.203648,0.06713806,0.8705996,0.08250481,-1.0067059,0.35811976,3.044247
898,1778415811.2137842,0.13549572,0.94023776,0.07939488,-1.2200506,0.47021353,2.9940033
899,1778415811.2240036,0.17019285,0.99231404,0.06921136,-1.3193163,0.52870387,2.8603766
900,1778415811.234175,0.20123126,0.9971314,0.042319544,-1.3868169,0.536187,2.6555839
901,1778415811.244533,0.20793895,0.98194754,0.021464668,-1.3478742,0.44180828,2.4776695
902,1778415811.2547092,0.19458452,0.9604829,0.0031709166,-1.212873,0.30482176,2.3499987
903,1778415811.2650335,0.21739073,0.90346736,0.006341833,-0.9950995,0.082924955,2.3009768
904,1778415811.275183,0.25446606,0.86834335,0.0219525,-0.8597928,-0.1217149,2.3593142
905,1778415811.285331,0.29824913,0.91572416,0.07262619,-0.6844745,-0.38560867,2.4501805
906,1778415811.295674,0.3047129,0.9323105,0.09433477,-0.6569856,-0.43157628,2.4486532
907,1778415811.3057902,0.3047129,0.9323105,0.09433477,-0.6569856,-0.43157628,2.4486532
908,1778415811.3159657,0.35105708,0.9573119,0.17525412,-0.660498,-0.36163223,2.2884538
909,1778415811.3260748,0.36922884,0.9128582,0.1326297,-0.6238461,-0.25335637,2.006845
910,1778415811.3362486,0.39008373,0.8748072,0.12598296,-0.6195701,-0.2750421,1.9749273
911,1778415811.3463583,0.38996178,0.8509033,0.11689706,-0.6536258,-0.29535335,1.9776763
912,1778415811.3568048,0.38996178,0.8509033,0.11689706,-0.6536258,-0.29535335,1.9776763
913,1778415811.3670135,0.40929216,0.8352316,0.09213952,-0.67088276,-0.34956762,1.977829
914,1778415811.3772328,0.41898784,0.82888985,0.08482202,-0.59880066,-0.47662762,1.9781344
915,1778415811.3874824,0.44673342,0.80303466,0.08878566,-0.44913867,-0.6221663,1.9837849
916,1778415811.3976161,0.44673342,0.80303466,0.08878566,-0.25702155,-0.7884743,2.0060816
917,1778415811.4077382,0.4786255,0.80016863,0.13098325,-0.036651913,-0.92347556,2.048842
918,1778415811.4178476,0.51600575,0.82998747,0.18269359,0.033750303,-0.95157534,2.0751092
919,1778415811.4279757,0.59113204,0.84126866,0.2742843,-0.35369098,-0.54550266,2.0270035
920,1778415811.4381664,0.59113204,0.84126866,0.2742843,-0.35369098,-0.54550266,2.0270035
921,1778415811.4484785,0.56277674,0.80602264,0.18318142,-0.700357,-0.09621128,1.9098701
922,1778415811.458609,0.5432024,0.74254334,0.10579886,-0.6372852,-0.10369437,1.9165897
923,1778415811.4689124,0.556191,0.69034517,0.09439575,-0.46609017,-0.21319197,1.9906571
924,1778415811.4791708,0.5728383,0.65820915,0.122751065,-0.2593123,-0.3191771,2.1192443
925,1778415811.4892595,0.6024132,0.6461353,0.18641332,-0.0720821,-0.34422258,2.2887595
926,1778415811.4993784,0.65485525,0.67296606,0.22543997,-0.010995574,-0.2612976,2.4069617
927,1778415811.509643,0.69065005,0.7051631,0.25190493,-0.084910266,-0.10170906,2.4396431
928,1778415811.519765,0.7235788,0.73870164,0.20434119,-0.21227567,0.053297993,2.3530529
929,1778415811.529878,0.7213226,0.7585198,0.13226382,-0.23716843,0.060628377,2.1649065
930,1778415811.5400093,0.72668874,0.7646788,0.047075916,-0.15607607,-0.07742717,1.9853121
931,1778415811.5501542,0.7335794,0.71876144,-0.012988563,0.042760566,-0.37033707,1.7858646
932,1778415811.5603023,0.73571366,0.655831,-0.038904708,0.30879238,-0.7602218,1.6798794
933,1778415811.5704463,0.79077786,0.5695454,-0.013781292,0.5934556,-1.138042,1.738828
934,1778415811.5805674,0.8329144,0.5321042,0.05055173,0.7695375,-1.3585643,1.8872682
935,1778415811.5906825,0.85383034,0.5371655,0.12970269,0.852157,-1.4216361,2.0638082
936,1778415811.6007872,0.8826125,0.58357066,0.19647488,0.83077675,-1.3406965,2.1852176
937,1778415811.6109,0.92792004,0.67863715,0.24531919,0.83077675,-1.3406965,2.1852176
938,1778415811.6210322,0.93822545,0.7001018,0.25391725,0.37125334,-0.6458373,2.0402899
939,1778415811.631153,0.9326763,0.6834545,0.22190319,0.05513059,-0.2582433,1.8654298
940,1778415811.6415253,0.92944443,0.65320885,0.18171792,-0.16890424,-0.0038179078,1.7469219
941,1778415811.6516547,0.92944443,0.5760702,0.12043386,-0.38423425,0.19272798,1.6881261
942,1778415811.661767,0.92541987,0.5213109,0.029818814,-0.46792278,0.1919644,1.7024814
943,1778415811.6718955,0.9246881,0.5046636,-0.007561417,-0.45097128,0.1339322,1.720502
944,1778415811.6820066,0.9437745,0.4542948,-0.06225973,-0.20845777,-0.29428434,1.8411479
945,1778415811.692126,0.96877605,0.4411843,-0.033111688,-0.022449298,-0.57864213,1.9343048
946,1778415811.7022476,1.0039,0.47057623,0.053173836,0.16997325,-0.7991645,2.0152445
947,1778415811.7123518,1.021889,0.52234757,0.10921369,0.27855456,-0.84207773,1.9847012
948,1778415811.7224624,1.0402436,0.5365557,0.16257046,0.2611449,-0.7454083,1.8810068
949,1778415811.7325907,1.0471952,0.5020415,0.19775544,0.11957687,-0.5300783,1.7921259
950,1778415811.742705,1.0441463,0.47472283,0.1911697,-0.025198191,-0.32177326,1.7475327
951,1778415811.7528336,1.0307918,0.4454528,0.16604628,-0.18784106,-0.08689558,1.7200438
952,1778415811.7629542,1.030609,0.42343935,0.14433768,-0.29138273,0.058337633,1.7188221
953,1778415811.7732081,1.0575616,0.3887422,0.09677394,-0.3839288,0.16982053,1.7395915
954,1778415811.7833395,1.1089672,0.40026724,0.041038983,-0.4167628,0.1337795,1.7545577
955,1778415811.7936575,1.1264682,0.41874394,0.026769854,-0.39920044,0.054061573,1.7331774
956,1778415811.803777,1.1509209,0.44508693,0.02262327,-0.2932153,-0.14782938,1.6549866
957,1778415811.8138921,1.1719587,0.46020976,0.037014354,-0.17150041,-0.31627548,1.5470163
958,1778415811.8240201,1.1839105,0.47582048,0.07823627,-0.060628377,-0.42058071,1.4173601
959,1778415811.8341432,1.1792151,0.4735032,0.11281146,-0.00015271631,-0.41126502,1.2710578
960,1778415811.844265,1.1817763,0.4656979,0.1323248,0.0016798794,-0.36560285,1.1867584
961,1778415811.8543837,1.185679,0.4656979,0.13909347,-0.07544186,-0.23854288,1.0360274
962,1778415811.8646421,1.1906183,0.45795357,0.15031365,-0.18478674,-0.13057245,0.95279706
963,1778415811.874802,1.2208029,0.44722122,0.15025267,-0.40561453,0.064751714,0.84391034
964,1778415811.884934,1.2422066,0.4554534,0.14427671,-0.54382277,0.17516561,0.77824235
965,1778415811.8950686,1.2511096,0.48667476,0.14702077,-0.6606508,0.2771801,0.68768156
966,1778415811.90519,1.255988,0.5041757,0.14445965,-0.7133379,0.34376442,0.5917757
967,1778415811.915312,1.2725133,0.521189,0.13214186,-0.7484626,0.38606682,0.45142943
968,1778415811.9255085,1.2657446,0.5348483,0.1340322,-0.7510588,0.38728857,0.30833423
969,1778415811.9356396,1.2531219,0.53783625,0.14427671,-0.7292204,0.38713586,0.16355917
970,1778415811.9458544,1.2366575,0.53009194,0.16092403,-0.68691796,0.39645153,0.053145275
971,1778415811.9562752,1.2201321,0.5257014,0.17122951,-0.6261369,0.42256603,-0.077121735
972,1778415811.9664938,1.2074485,0.52765274,0.16927817,-0.55924714,0.44150287,-0.18417588
973,1778415811.976607,1.1917769,0.5325311,0.15421632,-0.4813618,0.44226643,-0.29016098
974,1778415811.986744,1.1808006,0.50423676,0.12622687,-0.35934147,0.3921755,-0.42852196
975,1778415811.9970076,1.1808006,0.50423676,0.12622687,-0.26221392,0.31566462,-0.50426924
976,1778415812.007123,1.1833618,0.5105786,0.13884957,-0.19394971,0.26450464,-0.55756724
977,1778415812.0173852,1.1995821,0.5325311,0.16202165,-0.1282817,0.22800545,-0.63423085
978,1778415812.0274935,1.2189126,0.5832657,0.19909698,-0.111941054,0.2591596,-0.8472701
979,1778415812.0375848,1.2228762,0.5794241,0.21269535,-0.1469131,0.33169982,-0.98624194
980,1778415812.0476866,1.2161076,0.5721066,0.22348866,-0.1469131,0.33169982,-0.98624194
981,1778415812.0577831,1.1980578,0.56485003,0.22458628,-0.23411411,0.5045747,-1.2029464
982,1778415812.0679002,1.1843374,0.54728806,0.22178122,-0.2660318,0.57344973,-1.274723
983,1778415812.0780187,1.1609215,0.5346044,0.21854934,-0.26984972,0.61208695,-1.3199271
984,1778415812.0881562,1.1511037,0.526799,0.20598765,-0.24113905,0.6264423,-1.3654366
985,1778415812.0982883,1.1511037,0.526799,0.20598765,-0.24113905,0.6264423,-1.3654366
986,1778415812.1084237,1.1170774,0.5366167,0.21678093,-0.13805555,0.5739079,-1.4546229
987,1778415812.1185255,1.1039668,0.54637337,0.22550097,-0.13805555,0.5739079,-1.4546229
988,1778415812.1287534,1.1039668,0.54637337,0.22550097,-0.13805555,0.5739079,-1.4546229
989,1778415812.1388862,1.1039668,0.54637337,0.22550097,-0.13805555,0.5739079,-1.4546229
990,1778415812.1490183,1.1039668,0.54637337,0.22550097,-0.13805555,0.5739079,-1.4546229
991,1778415812.1591527,1.0460366,0.52990896,0.24720955,0.11010846,0.57848936,-1.7556267
992,1778415812.169282,1.0265843,0.5333238,0.25019753,0.14248432,0.58551437,-1.7951802
993,1778415812.1794071,1.0251209,0.51972544,0.260503,0.16783522,0.59986967,-1.822211
994,1778415812.1898253,1.0251209,0.51972544,0.260503,0.16783522,0.59986967,-1.822211
995,1778415812.1999564,0.98621607,0.5348483,0.26593015,0.16172658,0.6577492,-1.8527542
996,1778415812.2100875,0.9768863,0.5494833,0.24934383,0.18555032,0.66614854,-1.9068159
997,1778415812.2203646,0.95584846,0.55283713,0.23525764,0.23090707,0.6356053,-1.9622519
998,1778415812.2304661,0.9470064,0.55283713,0.22019579,0.30176744,0.57986385,-2.0022635
999,1778415812.240636,0.9392012,0.5543006,0.21928109,0.4268421,0.4560109,-2.0367775
