id,timestamp,acc_x,acc_y,acc_z,gyro_x,gyro_y,gyro_z
0,1778416077.927492,-0.017196124,0.5052734,0.98908216,-0.17348573,0.70264775,0.77931136
1,1778416077.9375982,-0.019879209,0.46618572,0.9596292,-0.23609942,1.08902,0.7254025
2,1778416077.9477289,-0.00085370836,0.42606148,0.89072275,-0.30375275,1.3077098,0.74113226
3,1778416077.9578583,0.0045124586,0.3697167,0.7417506,-0.36361754,1.3574953,0.7881689
4,1778416077.9680336,-0.055552024,0.41484126,0.61180395,-0.44211373,1.1287262,0.84131414
5,1778416077.97815,-0.07012604,0.4195977,0.5291162,-0.6067419,0.5652031,0.8396343
6,1778416077.9883356,-0.059149794,0.4238662,0.47850356,-0.72402805,0.36560285,0.8784242
7,1778416077.9985242,-0.030489584,0.4486847,0.4534411,-1.0662653,-0.26206118,0.98746365
8,1778416078.0086527,0.042075627,0.43429363,0.62302417,-1.5534303,-1.0204504,1.1111639
9,1778416078.0189457,0.118604474,0.39642558,0.73528683,-1.8336648,-1.3287846,1.1710287
10,1778416078.0291486,0.27025968,0.24977067,0.8085838,-2.0602958,-1.7979292,1.346347
11,1778416078.0393338,0.307335,0.21989086,0.9998144,-2.0566306,-1.7085901,1.5337299
12,1778416078.0494719,0.5528981,0.11945819,0.8467567,-2.0265455,-1.6520851,1.8478674
13,1778416078.059606,0.54100716,0.16403395,0.7020531,-1.9642372,-1.877647,2.5076017
14,1778416078.069717,0.49673632,0.19068186,0.6125358,-1.8409951,-2.1784983,3.0051515
15,1778416078.0799549,0.45496556,0.25574663,0.70327276,-1.6519324,-2.4906504,3.4200819
16,1778416078.090194,0.5085053,0.26367393,0.78474087,-1.4428637,-2.484389,3.5697439
17,1778416078.1006925,0.4495994,0.39264485,0.9194439,-1.0456486,-2.115121,3.4109187
18,1778416078.1107957,0.38508344,0.6369884,0.96780044,-0.18448131,-0.59727347,1.4198035
19,1778416078.1209295,0.61399925,0.39618164,1.0350604,-0.23014349,-0.42959097,0.6337727
20,1778416078.1313734,0.61399925,0.39618164,1.0350604,-0.23014349,-0.42959097,0.6337727
21,1778416078.1414742,0.74681187,-0.057503358,0.90255266,-0.257327,-0.11346822,0.63697976
22,1778416078.1515973,0.74681187,-0.057503358,0.90255266,-0.257327,-0.11346822,0.63697976
23,1778416078.161734,0.7247374,-0.0600035,0.6073525,-0.4268421,-0.59238654,0.82512623
24,1778416078.1718414,0.76943517,-0.015000875,0.47941822,-0.8703303,-2.43048,1.0974194
25,1778416078.1819735,0.86578226,-0.03963646,0.63052464,-0.8703303,-2.43048,1.0974194
26,1778416078.192256,0.8735266,-0.081956,0.90511376,-1.0598512,-3.040887,1.1937834
27,1778416078.202381,0.74004316,-0.13366634,0.8485251,-0.9941832,-4.238794,1.5474744
28,1778416078.2125115,0.75833696,-0.13537374,0.9817646,-0.75777835,-4.62593,1.8736764
29,1778416078.2227004,0.80352247,-0.058966853,0.92907864,-0.3659083,-4.7473392,2.1937697
30,1778416078.232825,0.82370657,0.1378739,0.8942595,-0.04062254,-4.9722905,2.3443482
31,1778416078.242954,0.81791353,0.34556895,0.9124923,0.28405234,-5.2381697,2.3469443
32,1778416078.253112,0.72235924,0.48899198,1.2058021,0.2948952,-4.72321,2.1529946
33,1778416078.2632527,0.6222314,0.5227744,0.98121583,0.3494149,-4.2158866,1.9659171
34,1778416078.2733545,0.43734258,0.62564623,0.90737003,0.33582318,-3.8973203,1.8759671
35,1778416078.2835867,0.43734258,0.62564623,0.90737003,0.33582318,-3.8973203,1.8759671
36,1778416078.2936854,0.2145247,0.7501657,0.9327374,0.063988134,-2.770732,1.6943874
37,1778416078.3037841,-0.2172078,1.2435482,0.5830828,0.018325957,-2.5305092,1.4798211
38,1778416078.3139215,-0.31361586,1.4005086,0.5377753,0.0022907446,-2.5244007,1.2035573
39,1778416078.324048,-0.2654423,1.419412,0.518018,-0.016798794,-2.7921124,1.0259482
40,1778416078.3341641,-0.17196125,1.4913675,0.7165662,-0.037873644,-3.225063,0.8712466
41,1778416078.3442674,0.008598062,1.5576519,1.0152422,0.13607024,-3.4515414,0.6918049
42,1778416078.354385,0.17019285,1.6780857,1.3743484,0.8526152,-3.2517884,0.28970283
43,1778416078.364648,0.31014004,1.7529072,1.5358213,1.6630806,-2.7776043,-0.22678372
44,1778416078.374781,0.49069935,1.8051053,1.639425,2.6100745,-1.9857702,-1.0940597
45,1778416078.3848798,0.60991365,1.7401625,1.6286926,3.0860913,-1.3119859,-1.8075503
46,1778416078.3950264,0.60991365,1.7401625,1.6286926,3.0860913,-1.3119859,-1.8075503
47,1778416078.405128,0.9169437,1.5301503,1.5285648,3.1824553,-0.2406809,-2.9875891
48,1778416078.4153252,1.1314684,1.478196,1.7348573,2.8938215,0.04917465,-3.264464
49,1778416078.4255319,1.3087349,1.5141128,1.9635292,2.6768115,0.40118575,-3.4600935
50,1778416078.4356515,1.6492425,1.533748,2.195189,2.649017,0.8727737,-3.7319286
51,1778416078.4457607,2.0249352,1.5154543,2.4458745,2.8938215,1.379181,-4.0480514
52,1778416078.4559066,2.2324471,1.3452613,2.490328,3.3147075,1.9737056,-4.531093
53,1778416078.4660282,2.1901886,1.0446341,2.2778158,3.9364157,2.457511,-4.991838
54,1778416078.476208,2.1589675,0.86486757,2.078109,4.3467646,2.4793494,-5.0999613
55,1778416078.4863214,2.0454242,0.39685243,1.4679515,4.968167,1.8342756,-4.9333477
56,1778416078.4964273,1.8955984,0.31678677,1.106589,5.4727416,0.6907359,-4.631733
57,1778416078.5065465,1.890598,0.26641798,1.0106077,5.705634,-0.6009387,-4.24307
58,1778416078.5167086,1.8504738,0.22763525,1.0888441,5.659514,-1.3953689,-3.9025126
59,1778416078.5269022,1.8416928,0.10195717,1.130005,5.540853,-1.6201674,-3.62014
60,1778416078.537074,1.7421138,-0.11543357,1.106345,5.2652,-1.3074044,-3.1091514
61,1778416078.547206,1.5759456,-0.29580995,1.0049367,4.9722905,-0.8231409,-2.7065911
62,1778416078.5573177,1.2385479,-0.5617401,0.7344331,4.4102945,-0.07696902,-2.0955732
63,1778416078.567453,1.0035952,-0.7106512,0.51393247,3.8632646,0.43753225,-1.5325081
64,1778416078.5775619,0.8357805,-0.8068154,0.35020337,3.3197472,0.79534656,-0.90010995
65,1778416078.5876954,0.55527633,-0.863709,0.05927175,2.6357307,0.9960158,0.089491755
66,1778416078.5978277,0.44447714,-0.81340116,-0.16781467,2.349693,0.91690874,0.6600399
67,1778416078.607931,0.32672638,-0.813584,-0.31282312,2.2059872,0.6235407,1.2605205
68,1778416078.6180475,0.32386038,-0.73479897,-0.4241711,2.1959078,0.15454891,1.7322611
69,1778416078.6281984,0.29465136,-0.740592,-0.4094141,2.2510383,-0.21471913,2.0114264
70,1778416078.6383064,0.29611483,-0.79742455,-0.29965162,2.270128,-0.39080104,2.3205245
71,1778416078.6485217,0.3111157,-0.80510795,-0.22617173,2.17804,-0.24190263,2.61038
72,1778416078.658634,0.31617698,-0.8182185,-0.19062088,1.9981402,0.013744468,2.786309
73,1778416078.6687632,0.31215236,-0.837244,-0.20263378,1.6398678,0.3304781,2.9213104
74,1778416078.678879,0.31135964,-0.8455981,-0.25611252,1.173014,0.52839845,2.9495628
75,1778416078.689134,0.29660267,-0.8334633,-0.2911755,1.0381655,0.5279403,2.9275718
76,1778416078.6993074,0.24336785,-0.8081569,-0.31495738,0.72143185,0.38240165,2.755613
77,1778416078.7094557,0.19068186,-0.82809705,-0.31074983,0.56779927,0.17088956,2.5561657
78,1778416078.719763,0.1428132,-0.8704776,-0.32678735,0.548557,-0.015882496,2.4485006
79,1778416078.7300994,0.058052167,-0.90413815,-0.38276625,0.61819565,-0.18035796,2.4683537
80,1778416078.7404163,0.025306353,-0.9588974,-0.46691746,0.68737614,-0.48823404,2.6519186
81,1778416078.7505245,0.048600398,-1.0071929,-0.4735642,0.57925296,-0.90224797,3.2433891
82,1778416078.7606478,0.048600398,-1.0071929,-0.4735642,0.57925296,-0.90224797,3.2433891
83,1778416078.7709434,0.1437279,-1.0669525,-0.60631585,0.35979962,-0.9334021,3.878078
84,1778416078.7812092,0.1437279,-1.0669525,-0.60631585,0.35979962,-0.9334021,3.878078
85,1778416078.7913272,0.14915505,-1.1493354,-0.8369391,0.3555236,-1.1360567,4.1862597
86,1778416078.8014934,0.22586684,-1.4365473,-1.135615,0.42058071,-1.916437,4.9565606
87,1778416078.811647,0.9608487,-1.6250948,-0.79333895,0.18280143,-2.9927816,6.8122163
88,1778416078.8217652,1.7843724,-1.6797931,-0.27215004,-0.46089783,-2.506533,8.017301
89,1778416078.831885,2.6714973,-1.2974538,0.21300024,-1.59558,-0.7715228,9.154427
90,1778416078.8419864,3.4715438,-0.7706547,0.2151345,-2.67223,0.8312349,9.605551
91,1778416078.8520837,4.2815304,0.0043905,-0.18269359,-3.6882517,1.9463694,9.243002
92,1778416078.862178,4.800768,0.5131397,-0.5330799,-3.6195292,1.3932309,8.195368
93,1778416078.8722787,4.800768,0.5131397,-0.5330799,-2.6007588,0.119729586,7.096727
94,1778416078.8823717,5.0388308,0.65784323,-0.46673456,-1.0468704,-1.3822353,6.258009
95,1778416078.8924572,5.0388308,0.65784323,-0.46673456,0.9818132,-2.4451408,5.588806
96,1778416078.9025486,5.072857,0.8218162,-0.10110346,0.9818132,-2.4451408,5.588806
97,1778416078.9126685,4.4919086,1.2387308,0.01097625,3.019354,-1.78617,4.064392
98,1778416078.9227817,4.0320034,1.3377,-0.16208263,2.9388726,-0.8428413,3.223536
99,1778416078.9329047,3.4325173,1.469354,-0.3858152,2.3608415,-0.039095376,2.2026274
100,1778416078.9430137,2.806871,1.4697199,-0.44673342,1.4885259,0.5177083,1.1391109
101,1778416078.953115,2.320806,1.3867882,-0.43032995,0.7481572,0.8712466,0.40194935
102,1778416078.963212,1.8112643,1.2514145,-0.330751,-0.09605856,1.2567025,-0.29260445
103,1778416078.973341,1.5642986,1.1586041,-0.26214942,-0.59895337,1.5512923,-0.66523224
104,1778416078.9834383,1.1783614,1.0376825,-0.20891462,-0.9294315,1.8073975,-0.98944896
105,1778416078.9935393,1.1783614,1.0376825,-0.20891462,-0.9294315,1.8073975,-0.98944896
106,1778416079.0036647,0.8360244,0.9950581,-0.21952501,-0.95432425,1.8208365,-1.1800389
107,1778416079.0137904,0.32386038,0.97743505,-0.1917185,-0.26251933,0.9931142,-1.627345
108,1778416079.024017,0.15116736,0.9557874,-0.12482436,0.01863139,0.6417139,-1.8216002
109,1778416079.0341718,0.0734799,0.8834052,-0.040429186,0.25686884,0.27122417,-2.0434968
110,1778416079.0442982,0.029574897,0.80370545,0.06969919,0.3491095,0.113926366,-2.1755965
111,1778416079.0544171,0.019574312,0.7313841,0.22629368,0.40530908,0.1498147,-2.2826507
112,1778416079.0645366,0.019208437,0.7452264,0.3327633,0.47403142,0.43768495,-2.3721426
113,1778416079.0746446,0.032501895,0.80809593,0.33861732,0.60032785,0.80481493,-2.5760188
114,1778416079.0847645,0.06317442,0.85431814,0.31245726,0.60032785,0.80481493,-2.5760188
115,1778416079.0948663,0.115555525,0.8848687,0.25568563,0.906524,1.131017,-3.1989486
116,1778416079.1049697,0.2145247,0.8705386,0.17513217,0.906524,1.131017,-3.1989486
117,1778416079.1151307,0.3867299,0.80401033,0.14177656,1.4414892,0.9419542,-4.3143883
118,1778416079.125369,0.5925346,0.7279083,0.18330337,1.6342173,0.74296486,-4.816978
119,1778416079.1354861,0.8718801,0.6377811,0.31946984,1.6922494,0.73532903,-5.198158
120,1778416079.145652,1.0578055,0.5471661,0.40008432,1.6797267,0.8668178,-5.3128476
121,1778416079.1559052,1.5110028,0.5066759,0.5805827,1.5783231,1.3775011,-5.2021284
122,1778416079.1660202,1.9565165,0.81791353,0.6388177,1.449125,1.9596558,-5.115691
123,1778416079.1761835,2.2797062,1.2222664,0.66918534,1.2837334,2.4078782,-5.4142513
124,1778416079.1863012,2.6305804,1.4325225,0.6675999,1.0261009,2.7612636,-6.037639
125,1778416079.196647,3.0215178,1.3547741,0.69723576,0.66981375,2.947425,-6.834055
126,1778416079.2068098,3.2059188,1.1915329,0.7943146,0.44165558,2.9341385,-7.3248854
127,1778416079.216992,3.2059188,1.1915329,0.7943146,0.44165558,2.9341385,-7.3248854
128,1778416079.2271678,2.9841375,0.74071395,0.9710323,0.9424124,2.5042422,-7.9496474
129,1778416079.2373106,2.7879674,0.4030723,0.9645685,1.8199203,2.0544925,-7.7584467
130,1778416079.2474983,2.6091158,0.16811956,0.8824905,2.6025913,1.6475036,-7.2663946
131,1778416079.2576065,2.4494112,0.006097917,0.7138221,3.2398765,1.1545353,-6.5663433
132,1778416079.267731,2.1210992,-0.2309891,0.48691866,3.7194057,0.34666604,-5.195867
133,1778416079.2778358,1.7662007,-0.4147193,0.3594722,3.6992471,-0.103847094,-3.9188533
134,1778416079.2879684,1.6171066,-0.5330799,0.32764107,3.5810447,-0.2910773,-3.1238122
135,1778416079.2980607,1.3772146,-0.70211416,0.28867537,3.3638823,-0.2919936,-1.9139935
136,1778416079.3081534,1.1757393,-0.85315955,0.22958656,3.1613803,-0.05421429,-0.95722586
137,1778416079.3183665,0.9593243,-0.96682465,0.097749606,2.9367347,0.3031419,-0.083383106
138,1778416079.3284864,0.75047064,-0.998107,-0.02872119,2.7832549,0.43554693,0.37720928
139,1778416079.3386095,0.5429585,-0.97859365,-0.104396336,2.6004534,0.5296202,0.8503244
140,1778416079.3487365,0.42093918,-0.97463006,-0.13512984,2.4514022,0.5726862,1.2078333
141,1778416079.3588643,0.30282256,-0.97700816,-0.15799703,2.2522602,0.6065892,1.6479617
142,1778416079.3690188,0.22568391,-0.9960337,-0.1741565,2.0517437,0.6693556,2.0538816
143,1778416079.3791258,0.18263261,-1.0271941,-0.19860914,1.8497,0.7405214,2.436436
144,1778416079.3894641,0.15415533,-1.036036,-0.22470824,1.7650951,0.75777835,2.5792258
145,1778416079.3995738,0.14067894,-1.0293283,-0.28648013,1.4880677,0.679893,2.9491048
146,1778416079.4098518,0.15787506,-1.0103029,-0.2716012,1.2649492,0.529162,3.1590896
147,1778416079.4199793,0.19177948,-0.9990217,-0.2250741,1.0395399,0.42546764,3.245527
148,1778416079.4301035,0.23586741,-1.0038391,-0.17946169,0.79045963,0.40393466,3.2259793
149,1778416079.4402118,0.2394042,-0.9841428,-0.08183405,0.3268129,0.4981606,3.1354187
150,1778416079.4503407,0.2394042,-0.9841428,-0.08183405,0.3268129,0.4981606,3.1354187
151,1778416079.4604697,0.19775544,-0.9654831,-0.033172667,0.062308256,0.73960507,3.1224377
152,1778416079.4705641,0.07268717,-0.96194637,-0.2720281,-0.20173825,0.8724683,3.3223433
153,1778416079.480684,0.05329579,-0.96712965,-0.4256346,-0.13713925,0.5345071,3.5537086
154,1778416079.4908102,0.05329579,-0.96712965,-0.4256346,-0.13713925,0.5345071,3.5537086
155,1778416079.5009568,0.09244442,-0.9122484,-0.51271284,-0.010079277,0.10934488,3.7646098
156,1778416079.5110452,0.32062846,-0.6433302,-0.50838333,0.26206118,-0.90041536,3.915799
157,1778416079.5212874,0.32062846,-0.6433302,-0.50838333,0.26206118,-0.90041536,3.915799
158,1778416079.53154,0.6560749,-0.5514956,-0.52234757,0.27977628,-1.1985176,3.6803105
159,1778416079.5416284,0.85498893,-0.6338175,-0.66070926,0.20922135,-1.3197744,3.853338
160,1778416079.5517254,1.1736051,-0.5490564,-0.8122425,0.089949906,-1.6916386,4.515974
161,1778416079.562103,1.1736051,-0.5490564,-0.8122425,-0.021380283,-2.108096,5.27024
162,1778416079.5722458,2.382883,0.014695979,-0.6664413,-0.021380283,-2.108096,5.27024
163,1778416079.5823467,3.1271946,0.5979617,-0.44606262,-0.44516805,-1.9533943,6.7147837
164,1778416079.5924442,3.6491761,0.9373718,-0.40288937,-0.76144356,-1.2351695,6.694625
165,1778416079.6027632,3.6491761,0.9373718,-0.40288937,-0.76144356,-1.2351695,6.694625
166,1778416079.6128855,4.0352964,1.3059908,-0.44551378,-2.0034852,0.50656,5.0859113
167,1778416079.6230505,4.0905437,1.8318143,-0.70619977,-2.0034852,0.50656,5.0859113
168,1778416079.633153,3.9087036,1.7357111,-0.5886929,-1.9854648,0.5551238,2.7194192
169,1778416079.6432712,3.5936854,1.6704632,-0.41295093,-1.5328137,0.5331327,2.0210476
170,1778416079.653396,3.2587876,1.6197287,-0.3141037,-0.7848091,0.5421429,1.2513574
171,1778416079.6635973,3.0120049,1.5147225,-0.2950172,0.05100725,0.52656585,0.5235115
172,1778416079.6740365,3.0120049,1.5147225,-0.2950172,0.05100725,0.52656585,0.5235115
173,1778416079.6841543,2.332819,1.1959845,-0.3047129,1.1623238,0.42959097,-0.61712664
174,1778416079.6942887,1.9197462,1.0520126,-0.29641974,1.5581645,0.31749722,-1.2454015
175,1778416079.7045317,1.9197462,1.0520126,-0.29641974,1.5581645,0.31749722,-1.2454015
176,1778416079.7146335,1.2727572,0.78474087,-0.1425693,1.6442965,0.21670444,-2.034334
177,1778416079.7248473,1.0235354,0.74272627,-0.056283772,1.5219707,0.39828414,-2.2456934
178,1778416079.7349641,0.8705996,0.719981,-0.025367333,1.4268285,0.571159,-2.399937
179,1778416079.74509,0.737604,0.6928453,-0.0037807084,1.396438,0.74128497,-2.6207647
180,1778416079.7552102,0.6372323,0.65979457,0.008415125,1.4892895,0.84207773,-2.8651106
181,1778416079.7655396,0.6372323,0.65979457,0.008415125,1.4892895,0.84207773,-2.8651106
182,1778416079.7757392,0.524116,0.6340614,0.014391083,1.7948748,0.86070913,-3.3783903
183,1778416079.7858567,0.5054563,0.5819242,0.012805625,1.9704986,0.79091775,-3.7191002
184,1778416079.7961135,0.5043587,0.5365557,0.007256521,2.0850358,0.73960507,-4.0005565
185,1778416079.8062496,0.5313725,0.48630884,-0.023659917,2.1675026,0.6545421,-4.328133
186,1778416079.8163934,0.5633255,0.4423429,-0.055186145,2.1587977,0.54000485,-4.651281
187,1778416079.8265088,0.6600385,0.37105823,-0.07555319,2.0557144,0.39690968,-4.926934
188,1778416079.8366895,0.7364454,0.30959123,-0.06768687,1.9129245,0.3191771,-5.081024
189,1778416079.84681,0.8552938,0.23300138,-0.05744238,1.6800321,0.2782491,-5.176625
190,1778416079.8569305,1.0078027,0.19781642,-0.049027253,1.4378241,0.28924468,-5.147303
191,1778416079.867114,1.1214678,0.26788148,-0.05573496,1.2461652,0.32284227,-5.1697526
192,1778416079.8774633,1.2989173,0.29111454,-0.06238169,1.0241156,0.35170567,-5.314375
193,1778416079.8875926,1.4613657,0.2886144,-0.037624147,0.79702646,0.38423425,-5.4722834
194,1778416079.8977156,1.6172894,0.3436786,0.02128173,0.59956425,0.49266282,-5.628054
195,1778416079.9078407,1.7024773,0.40856043,0.06726002,0.31306845,0.70524395,-5.898973
196,1778416079.9180357,1.7409552,0.4291104,0.14238635,-0.0346666,1.0206031,-6.1715717
197,1778416079.9281647,1.7568097,0.41118255,0.20763406,-0.3297145,1.4430164,-6.320928
198,1778416079.9382794,1.7869337,0.37361938,0.19799936,-0.44532076,1.745242,-6.293592
199,1778416079.9484496,1.7407112,0.37008256,0.11890938,-0.38163805,1.9402608,-6.2205935
200,1778416079.9585648,1.5827752,0.34306878,-0.04524654,-0.034972034,1.6946929,-6.2305202
201,1778416079.9687047,1.4742934,0.26446667,-0.16061912,0.37995818,1.1232284,-6.12652
202,1778416079.9788184,1.3719703,0.038416874,-0.15842387,0.84849185,0.15836681,-5.648213
203,1778416079.9891436,1.2622688,-0.09640807,-0.10464026,1.0048733,-0.35979962,-5.2418346
204,1778416079.999293,1.0254866,-0.16372907,0.030428605,0.9596693,-0.9755518,-4.424955
205,1778416080.0094178,0.8248042,-0.118360564,0.20653644,0.64599,-1.2050844,-3.2609513
206,1778416080.019626,0.67949086,-0.12427554,0.3817296,0.45249844,-0.95294976,-2.496301
207,1778416080.0297315,0.41599986,-0.24849011,0.5488735,0.172264,-0.005497787,-1.3616186
208,1778416080.04016,0.13323948,-0.5300309,0.2952611,-0.26557365,1.3665055,0.52412236
209,1778416080.0502934,0.13323948,-0.5300309,0.2952611,-0.26557365,1.3665055,0.52412236
210,1778416080.0605092,0.050002918,-0.7384577,-0.13415417,-0.2405282,1.5250251,2.56991
211,1778416080.0706341,0.050002918,-0.7384577,-0.13415417,-0.2405282,1.5250251,2.56991
212,1778416080.0809639,0.12098267,-0.84218323,-0.3123353,0.005192355,1.071763,3.637397
213,1778416080.091077,0.39904767,-0.9648734,-0.40020627,0.5687156,0.075289145,5.1476088
214,1778416080.1013377,0.39904767,-0.9648734,-0.40020627,0.5687156,0.075289145,5.1476088
215,1778416080.1114671,0.81620616,-1.0439633,-0.29135844,0.79473567,-0.2041817,6.080858
216,1778416080.1216025,1.0440243,-0.9734714,-0.27708933,0.66538495,-0.024892759,6.383389
217,1778416080.1317244,1.1874473,-0.79626596,-0.32587266,0.38835758,0.23105977,6.42447
218,1778416080.1418998,1.2479997,-0.64284235,-0.36739948,0.00030543262,0.43692136,6.2048635
219,1778416080.1520028,1.2308645,-0.5683259,-0.4027674,-0.32268956,0.535118,5.863085
220,1778416080.1621048,1.1664705,-0.53515315,-0.43191543,-0.43554693,0.5151121,5.625611
221,1778416080.1722045,1.0971981,-0.4727715,-0.4612464,-0.37675115,0.34223726,5.4217343
222,1778416080.182344,1.0525614,-0.41423148,-0.43709868,-0.1518,0.062308256,5.281999
223,1778416080.192517,1.0525614,-0.41423148,-0.43709868,-0.1518,0.062308256,5.281999
224,1778416080.2029092,1.0671355,-0.33081198,-0.40118194,0.02855795,-0.08811731,5.2004485
225,1778416080.213105,1.0768921,-0.14945993,-0.3838029,0.3136793,-0.25625798,4.9452596
226,1778416080.2232215,1.1218338,0.155131,-0.39508402,0.6794349,-0.37675115,4.2293253
227,1778416080.233327,1.0909173,0.28965104,-0.40209663,0.6835582,-0.4720461,3.8486037
228,1778416080.2435818,1.0317065,0.37599754,-0.38923004,0.5410739,-0.5691737,3.4804046
229,1778416080.253678,1.0035341,0.4399037,-0.39099842,0.37064248,-0.6768387,3.2311716
230,1778416080.2637832,0.9850575,0.48667476,-0.40484068,0.12110403,-0.87689704,3.0338624
231,1778416080.273885,1.0294503,0.49539477,-0.39819396,-0.1330159,-1.0855075,2.9626966
232,1778416080.284204,1.0294503,0.49539477,-0.39819396,-0.1330159,-1.0855075,2.9626966
233,1778416080.2943616,1.2282424,0.635159,-0.3793514,-0.5001459,-1.3946054,3.0637946
234,1778416080.3044648,1.4861232,0.7793747,-0.3286777,-0.731053,-1.5428929,3.2311716
235,1778416080.3145764,1.4861232,0.7793747,-0.3286777,-0.731053,-1.5428929,3.2311716
236,1778416080.3246818,2.1087205,1.1983017,-0.19927992,-1.322676,-1.4840971,3.239571
237,1778416080.3347948,2.3894076,1.4677685,-0.13043444,-1.5625933,-1.2417363,2.874121
238,1778416080.3449807,2.5081341,1.6447302,-0.06823569,-1.9570595,-0.7272351,2.0723603
239,1778416080.3550997,2.5330138,1.7072337,0.0037807084,-2.3533583,-0.17058411,1.2965615
240,1778416080.3652213,2.5299037,1.6209482,0.0062808543,-2.7579038,0.55741453,0.44516805
241,1778416080.3753345,2.5769796,1.4521579,-0.059088815,-2.8179214,1.0810788,-0.05024367
242,1778416080.3854947,2.6863153,1.355323,-0.16397297,-2.581211,1.2353222,-0.24572055
243,1778416080.3957553,2.6863153,1.355323,-0.16397297,-2.581211,1.2353222,-0.24572055
244,1778416080.4058976,3.0452998,1.2905021,-0.27239394,-1.841606,1.0393872,-0.6534731
245,1778416080.4161031,3.0452998,1.2905021,-0.27239394,-1.841606,1.0393872,-0.6534731
246,1778416080.426218,3.0431652,1.2017775,-0.2762356,-1.0955868,1.0746647,-2.132836
247,1778416080.4363391,2.7835772,1.0455488,-0.25971028,-0.95524055,1.2762502,-3.0088167
248,1778416080.446507,2.499597,0.8732827,-0.25031948,-0.89675015,1.4602734,-3.58303
249,1778416080.456632,2.10744,0.66839266,-0.22379355,-0.84467393,1.6757561,-4.0836344
250,1778416080.466785,1.7551633,0.48978466,-0.22385453,-0.7976373,1.8177823,-4.3237042
251,1778416080.4769864,1.5008802,0.33941004,-0.22586684,-0.71868294,1.8655825,-4.3391285
252,1778416080.4871228,1.3714825,0.25123417,-0.23702602,-0.59895337,1.8842138,-4.265672
253,1778416080.4972622,1.2698911,0.21324414,-0.26367393,-0.4370741,1.8869628,-4.203669
254,1778416080.5073667,1.1921427,0.20202398,-0.29977357,-0.21792617,1.8399261,-4.2218423
255,1778416080.5174935,1.1054914,0.17714448,-0.35721594,-0.0062613687,1.7289014,-4.34035
256,1778416080.5277197,1.036097,0.13281263,-0.37855867,0.15851954,1.562746,-4.511087
257,1778416080.537943,0.9784107,0.08018761,-0.38679087,0.26190847,1.3776538,-4.7290134
258,1778416080.5480742,0.92950547,-0.023111105,-0.37672928,0.34040466,1.1925616,-4.9110513
259,1778416080.5582588,0.872246,-0.14098383,-0.37044844,0.40653083,1.0571023,-5.008637
260,1778416080.5683994,0.8271825,-0.27446723,-0.3670336,0.49495357,0.8877399,-5.0416236
261,1778416080.5785203,0.7884607,-0.39288875,-0.36227724,0.5900958,0.68951416,-4.999932
262,1778416080.5886366,0.75229996,-0.46350268,-0.34959355,0.65270954,0.5190827,-4.9483137
263,1778416080.5987797,0.7220543,-0.5370435,-0.32617757,0.68752885,0.33567044,-4.8754683
264,1778416080.6089418,0.6943088,-0.6261341,-0.2783089,0.6951646,0.099265605,-4.6923614
265,1778416080.6191778,0.66497785,-0.6483915,-0.19830425,0.68600166,-0.07315111,-4.4232755
266,1778416080.6293008,0.62936604,-0.6165604,-0.12976366,0.6976081,-0.15027285,-4.184885
267,1778416080.6394322,0.6038767,-0.61832875,-0.064942814,0.7298313,-0.14920384,-3.9942951
268,1778416080.6495442,0.5656428,-0.5889978,-0.020245085,0.7805331,-0.0759,-3.8185186
269,1778416080.6597712,0.4883212,-0.5338116,-0.015915563,0.82924956,0.0143553335,-3.7247508
270,1778416080.6698892,0.40142587,-0.4938703,-0.050368793,0.91797775,0.057268616,-3.6215146
271,1778416080.6800761,0.3003834,-0.46899077,-0.093907915,1.0516045,-0.002443461,-3.4443636
272,1778416080.6904442,0.20854875,-0.46575886,-0.21617115,1.1566733,-0.16814066,-3.275612
273,1778416080.7006133,0.08994427,-0.4228905,-0.27001578,1.3070989,-0.6910413,-2.8409815
274,1778416080.7109978,-0.08433419,-0.25220984,-0.3000175,1.3419182,-1.264033,-2.2977695
275,1778416080.7211113,0.038416874,-0.42337835,-0.06305246,0.81397796,-2.2666154,-1.0005972
276,1778416080.7312121,0.07408969,-0.39240095,0.1214705,0.40454552,-2.1531472,-0.28298333
277,1778416080.7414827,0.07585809,-0.21318316,0.28135788,-0.18875736,-1.632232,0.6267477
278,1778416080.7515843,0.028965104,-0.058905877,0.38179058,-0.7069238,-0.82344633,1.466382
279,1778416080.7616787,0.05847902,-0.037563168,0.33587328,-1.0358747,0.0421497,2.2783747
280,1778416080.771782,0.18318142,-0.17104656,0.1887915,-1.1539245,0.5326745,3.0376801
281,1778416080.7819133,0.38996178,-0.3216651,0.009451771,-1.1745411,0.71761394,3.909385
282,1778416080.79204,0.6771737,-0.40081608,-0.20421924,-1.1745411,0.71761394,3.909385
283,1778416080.8021607,0.6771737,-0.40081608,-0.20421924,-1.0910053,0.55939984,4.949536
284,1778416080.8123374,0.95560455,-0.40471873,-0.36380172,-0.9289733,0.087201014,5.667913
285,1778416080.8225832,1.232267,-0.41880494,-0.47618634,-0.7079928,-0.52534413,5.9278364
286,1778416080.8327146,1.7593709,-0.67424667,-0.5179571,-0.34529158,-1.5150986,6.0267963
287,1778416080.8428311,1.8785243,-0.696626,-0.46716142,-0.39584067,-1.690875,6.166532
288,1778416080.8529727,1.9895673,-0.7390065,-0.3802661,-0.6743952,-1.6844609,6.3235245
289,1778416080.86311,2.0892074,-0.7577881,-0.24434352,-1.1226176,-1.4828753,6.6414795
290,1778416080.8732553,2.0714624,-0.65912384,-0.13201989,-1.6027577,-1.0786353,6.9038463
291,1778416080.883359,2.0595713,-0.60546213,-0.105067104,-1.8738291,-0.8347474,6.9473705
292,1778416080.8934708,2.093354,-0.4021576,-0.06457694,-1.8738291,-0.8347474,6.9473705
293,1778416080.903751,2.034082,-0.19306004,-0.110860124,-2.3405302,-0.3643811,6.3470426
294,1778416080.913864,2.034082,-0.19306004,-0.110860124,-2.3405302,-0.3643811,6.3470426
295,1778416080.9240425,1.8143742,-0.055978876,-0.14976484,-2.1197023,-0.96776325,5.120425
296,1778416080.9341629,1.5710672,-0.016220458,-0.090737,-1.9019289,-1.404532,4.5889726
297,1778416080.944358,1.3986181,0.015305771,-0.00073175,-1.7701348,-1.7273742,4.2482624
298,1778416080.9545844,1.2185466,0.011342125,0.14006914,-1.6823229,-1.9523253,3.9460368
299,1778416080.9646952,1.0782946,0.021403689,0.25190493,-1.7119498,-1.9703459,3.7823248
300,1778416080.9748287,1.0148153,0.023537958,0.31825027,-1.8356501,-1.8695531,3.721391
301,1778416080.9850252,1.030304,0.05189327,0.37398523,-2.1400137,-1.6255124,3.7210855
302,1778416080.9952512,1.0455488,0.093359105,0.3887422,-2.3900104,-1.4347697,3.7140608
303,1778416081.005373,1.0677452,0.22001283,0.3840468,-2.9454396,-1.0325149,3.6212091
304,1778416081.0158474,1.0677452,0.22001283,0.3840468,-2.9454396,-1.0325149,3.6212091
305,1778416081.0259688,1.1958624,0.28940713,0.25227082,-3.4955237,-0.6931793,3.3628132
306,1778416081.0361,1.3880078,0.3407516,0.16513158,-3.5217907,-0.7834347,3.3287575
307,1778416081.046259,1.6290585,0.4928946,0.07091877,-3.4206927,-0.95279706,3.3458617
308,1778416081.0563896,1.9527969,0.64711094,0.025977125,-3.3223433,-1.2114985,3.3872478
309,1778416081.0665133,2.2162268,0.8337072,0.08415125,-3.4219143,-1.2278391,3.3980906
310,1778416081.0766435,2.4260561,1.1422617,0.18171792,-3.7465892,-0.87872964,3.2305608
311,1778416081.0867786,2.546185,1.3712995,0.22415942,-4.4713807,-0.01740966,2.6615398
312,1778416081.0969563,2.5589907,1.4409987,0.23001343,-5.2151093,0.87888235,2.0034852
313,1778416081.107083,2.496426,1.4234368,0.19677977,-5.921117,1.8245018,1.3376422
314,1778416081.1172109,2.4403253,1.2375722,0.08280971,-6.486625,2.9611692,0.7602218
315,1778416081.1273413,2.4330688,1.1865937,-0.06518673,-6.3696446,3.5117116,0.61300325
316,1778416081.137578,2.453314,1.2080582,-0.28672403,-6.023284,3.549585,0.5349652
317,1778416081.147705,2.453314,1.2080582,-0.28672403,-6.023284,3.549585,0.5349652
318,1778416081.1578405,2.4634366,1.2544634,-0.503505,-5.00039,2.9454396,-0.17852537
319,1778416081.1679673,2.3959324,1.2185466,-0.45148978,-4.3968554,2.5211935,-0.7150178
320,1778416081.1781275,2.2837307,1.109638,-0.34191018,-3.8707476,2.3709207,-1.1450669
321,1778416081.1882606,2.122563,1.0289625,-0.280992,-3.4669657,2.482098,-1.4781412
322,1778416081.1984684,1.9816401,0.9847526,-0.26611307,-3.2026138,2.6445885,-1.7117971
323,1778416081.2087767,1.8475468,0.9473114,-0.27074748,-2.9465084,2.82403,-1.9184223
324,1778416081.21906,1.6486938,0.92688334,-0.34331274,-2.549446,2.993087,-2.215761
325,1778416081.2292128,1.5235035,0.9126752,-0.4200855,-2.1894937,2.9825497,-2.4911084
326,1778416081.2393608,1.4148996,0.9063333,-0.49021152,-1.7605137,2.860682,-2.8283062
327,1778416081.2495368,1.3447126,0.8750511,-0.56417924,-1.385137,2.6703975,-3.1444287
328,1778416081.2596865,1.2963561,0.8086447,-0.64095205,-0.91339624,2.2962425,-3.549738
329,1778416081.269798,1.2682447,0.74571425,-0.68473506,-0.5476407,1.920255,-3.881896
330,1778416081.279928,1.243975,0.64326924,-0.7160784,-0.14095716,1.3762794,-4.257578
331,1778416081.290045,1.2156807,0.5186278,-0.66369724,0.17898351,0.8185594,-4.563774
332,1778416081.3002017,1.1747028,0.37807086,-0.5279576,0.33841935,0.4436409,-4.786129
333,1778416081.3103304,1.1432985,0.28026026,-0.44405028,0.3549127,0.3555236,-4.8989863
334,1778416081.3204536,1.0933565,0.07390675,-0.31617698,0.23365596,0.38148534,-5.0335298
335,1778416081.3305504,1.0641475,-0.06927233,-0.24806325,0.086132,0.49556443,-5.0601025
336,1778416081.3408148,1.0168886,-0.23916028,-0.17629078,-0.103847094,0.71853024,-5.0223813
337,1778416081.3509204,0.95353127,-0.33215353,-0.14683785,-0.36972618,1.122923,-4.9052477
338,1778416081.3610308,0.89285696,-0.409658,-0.16074108,-0.36972618,1.122923,-4.9052477
339,1778416081.3711548,0.84096366,-0.44325754,-0.18123008,-0.41065416,1.1087204,-4.873025
340,1778416081.3812582,0.6334516,-0.4557583,-0.15409435,-0.41355577,1.0410671,-4.8731775
341,1778416081.3914747,0.6334516,-0.4557583,-0.15409435,-0.24358252,0.80741113,-4.8495064
342,1778416081.401601,0.54375124,-0.44984335,-0.16647314,-0.057421334,0.64476824,-4.822323
343,1778416081.4117374,0.4216709,-0.462466,-0.19513334,0.33215797,0.2182316,-4.6787696
344,1778416081.4219801,0.3715461,-0.5955225,-0.2189152,0.883922,-0.50717086,-4.2681155
345,1778416081.4320903,0.333678,-0.63442725,-0.17964463,1.5377005,-1.5138768,-3.3241758
346,1778416081.4421895,0.14409378,-0.3670336,-0.10177423,1.5804611,-1.9312505,-2.9177978
347,1778416081.4523146,0.115555525,-0.34697145,-0.06915038,1.403921,-2.2088888,-2.6925414
348,1778416081.462467,0.097322755,-0.42819571,0.014574022,0.9502009,-2.4028385,-2.339461
349,1778416081.4726021,0.031831127,-0.46356362,0.08018761,0.31337386,-2.3846653,-1.7470746
350,1778416081.4827292,-0.11354321,-0.436062,0.13604453,-0.28695396,-2.2521074,-0.9589057
351,1778416081.4928403,-0.16482669,-0.50716376,0.14885014,-0.68203104,-2.0760255,-0.043218717
352,1778416081.5029638,-0.12549512,-0.5968641,0.1575092,-0.9078985,-1.9527835,0.82924956
353,1778416081.5130973,0.03292875,-0.71437097,0.20769504,-1.1543826,-1.8003726,1.8095356
354,1778416081.5232472,0.23202574,-0.7232129,0.25275865,-1.5674802,-1.5227343,3.042567
355,1778416081.5333776,0.4188659,-0.72229826,0.27879676,-1.9225457,-1.2515101,3.8931968
356,1778416081.5435176,0.7358966,-0.7387626,0.23147692,-2.3751967,-0.7506007,4.805066
357,1778416081.55364,1.0484759,-0.7358356,0.08726119,-2.6317601,-0.5296202,5.210528
358,1778416081.5638044,1.261781,-0.7528488,-0.02872119,-2.74981,-0.5844453,5.33041
359,1778416081.5739472,1.4591095,-0.8330364,-0.100005835,-2.8313603,-0.9615019,5.4089065
360,1778416081.5840988,1.5713723,-0.83846354,-0.0658575,-2.767525,-1.3730724,5.472589
361,1778416081.594237,1.6263754,-0.80016863,0.07628494,-2.4346035,-1.7704402,5.522527
362,1778416081.6043663,1.6370467,-0.7808992,0.24245316,-2.0416644,-1.8750509,5.575825
363,1778416081.6144674,1.6370467,-0.7808992,0.24245316,-1.5445728,-1.6377298,5.650809
364,1778416081.624563,1.6211921,-0.7660203,0.36014298,-1.5445728,-1.6377298,5.650809
365,1778416081.6348023,1.6610725,-0.5839365,0.013049542,-0.5354234,-1.6818647,5.540242
366,1778416081.6449983,1.7815673,-0.4288055,-0.11726294,-0.05757405,-2.2020166,5.3511796
367,1778416081.655132,1.8155328,-0.2655643,-0.12415359,0.14263703,-2.7278187,5.1734176
368,1778416081.665298,1.7880923,-0.054149497,0.042441502,0.1469131,-3.1680999,4.8974595
369,1778416081.67546,1.7068679,0.09695688,0.2748941,-0.12492194,-3.0534098,4.577366
370,1778416081.685575,1.5816166,0.19873111,0.4133778,-0.53878313,-2.6265678,4.300644
371,1778416081.6956944,1.4587437,0.26233238,0.4727715,-1.0392345,-2.0415115,4.0080395
372,1778416081.7058504,1.373068,0.32947046,0.38075393,-1.6363553,-1.3435981,3.5708127
373,1778416081.7161572,1.3209307,0.34526405,0.19988972,-2.14093,-1.0587822,3.1737504
374,1778416081.7262745,1.2680008,0.35087416,0.054149497,-2.4233024,-1.212873,2.9255865
375,1778416081.7364566,1.287941,0.3594112,-0.042319544,-2.479044,-1.6853772,2.8458683
376,1778416081.746575,1.4070333,0.39002275,-0.0336605,-2.3834434,-2.2962425,2.9272664
377,1778416081.7566974,1.5322845,0.5296041,0.091956586,-2.2883012,-2.675437,3.0812044
378,1778416081.76681,1.6344247,0.7099805,0.16153382,-2.3316727,-2.7064385,3.1390839
379,1778416081.7769315,1.873158,0.869197,0.17372964,-2.551126,-2.5086708,3.1574097
380,1778416081.7870884,2.1679924,0.95664114,0.12982465,-2.9588785,-2.1723895,3.1790955
381,1778416081.7972798,2.4073355,1.0500003,0.09963996,-3.4229834,-1.8840611,3.18047
382,1778416081.807446,2.573382,1.2111683,0.0892735,-3.9985712,-1.5830573,3.0717359
383,1778416081.817566,2.6729,1.4212414,0.11976309,-4.8409543,-1.1647673,2.6476426
384,1778416081.8277063,2.6474104,1.4819157,0.24696562,-5.727167,-0.6102544,2.0112739
385,1778416081.8378224,2.575821,1.4086188,0.37508285,-6.389345,0.12415836,1.4769194
386,1778416081.8480227,2.54399,1.3064786,0.47704002,-6.619183,0.86345804,1.2380711
387,1778416081.8581614,2.5563076,1.3094666,0.4978949,-6.458831,1.3944527,1.1833987
388,1778416081.868286,2.5622835,1.3565426,0.41630477,-5.934861,1.8545868,1.0345002
389,1778416081.8784034,2.5629544,1.4266076,0.32837284,-5.35683,2.045635,0.7316638
390,1778416081.8885174,2.5339284,1.4683784,0.26056397,-4.68778,2.0996966,0.27473664
391,1778416081.8986297,2.3278189,1.4411206,0.19586508,-3.5923457,2.0476203,-0.5340489
392,1778416081.9088943,2.1287217,1.3754461,0.18287653,-2.8432722,2.0421226,-1.078788
393,1778416081.9190166,1.9075503,1.2595856,0.15769213,-2.1140518,2.0754147,-1.5717562
394,1778416081.929157,1.5726527,1.0680501,0.04524654,-1.1305588,2.1386392,-2.123673
395,1778416081.939302,1.343676,0.93743277,-0.064942814,-0.46120325,2.1481075,-2.3970351
396,1778416081.9494865,1.2143391,0.8759048,-0.16482669,-0.03573562,2.1288655,-2.5470026
397,1778416081.959631,1.1169555,0.8503545,-0.31507936,0.3912592,2.054187,-2.737287
398,1778416081.9698796,1.0611595,0.84382975,-0.44423324,0.68416905,1.9222403,-2.9802587
399,1778416081.98004,1.0256696,0.8099253,-0.5902783,0.8713993,1.7197384,-3.2943962
400,1778416081.9903328,0.98841137,0.7649227,-0.69741875,0.9627236,1.4598153,-3.594331
401,1778416082.000468,0.9565802,0.6663194,-0.7818139,0.99082345,1.0337367,-3.9390118
402,1778416082.0106094,0.93974996,0.5717407,-0.790412,0.91904676,0.6808093,-4.116163
403,1778416082.0209386,0.9382865,0.45142877,-0.737665,0.6638578,0.33108896,-4.202295
404,1778416082.0310683,1.0487807,0.27971146,-0.52057916,-0.1908954,0.15485434,-4.047135
405,1778416082.0411906,1.1318344,0.2514781,-0.47935724,-0.5149594,0.22296582,-3.9886446
406,1778416082.0512884,1.2758671,0.26653996,-0.43959883,-0.8775079,0.23945917,-3.9764273
407,1778416082.0614047,1.4040453,0.25977126,-0.35105708,-1.2052372,0.30024028,-4.1566324
408,1778416082.0715797,1.5186251,0.21117085,-0.23391607,-1.4756978,0.4343252,-4.4693956
409,1778416082.0816796,1.5356385,0.17482726,-0.13500789,-1.6052011,0.6533204,-4.8079677
410,1778416082.0918956,1.5099661,0.1232389,-0.0898833,-1.6052011,0.6533204,-4.8079677
411,1778416082.1023357,1.5099661,0.1232389,-0.0898833,-1.6180294,0.8727737,-5.129283
412,1778416082.1124878,1.4638659,-0.040002335,-0.076528855,-1.4570663,1.1972959,-5.6014814
413,1778416082.122598,1.2772697,-0.19970676,-0.08610259,-1.0833695,1.3532193,-5.940359
414,1778416082.1328664,1.0270112,-0.47222266,-0.20123126,-0.45707992,0.7648033,-5.9229493
415,1778416082.1429708,0.8376099,-0.54119015,-0.13634941,-0.021533,-0.02733622,-5.5773525
416,1778416082.153125,0.8376099,-0.54119015,-0.13634941,0.21700987,-0.54000485,-5.4287596
417,1778416082.1632545,0.36337486,-0.4013039,-0.09994486,0.34132096,-1.3498595,-5.1509686
418,1778416082.1733985,0.2883705,-0.61875564,0.07969977,0.32284227,-1.9237673,-4.4736714
419,1778416082.1835814,0.2883705,-0.61875564,0.07969977,0.32284227,-1.9237673,-4.4736714
420,1778416082.1939394,0.19238928,-0.64820856,0.18775485,0.2284636,-2.068848,-3.634801
421,1778416082.2043204,0.08073642,-0.5603376,0.23629428,0.16294831,-2.0427334,-2.4265094
422,1778416082.2145648,0.037929043,-0.5096029,0.23318435,0.17058411,-1.9775236,-1.7107282
423,1778416082.224695,0.0661624,-0.5222866,0.237087,0.1863139,-1.8009834,-0.35369098
424,1778416082.234828,0.13134913,-0.54820275,0.21800053,-0.06887506,-1.0801625,1.7311921
425,1778416082.244964,0.21074401,-0.53289694,0.11403105,-0.24785857,-0.8208502,2.4895813
426,1778416082.255147,0.29398057,-0.51411533,0.00024391667,-0.44119743,-0.6180429,3.300505
427,1778416082.2653782,0.29398057,-0.51411533,0.00024391667,-0.44119743,-0.6180429,3.300505
428,1778416082.2755501,0.37002158,-0.5036879,-0.095920235,-0.6032294,-0.59635717,4.3165264
429,1778416082.2856796,0.52997,-0.60930383,-0.21946402,-0.6426302,-0.66966105,4.544379
430,1778416082.2957895,0.52997,-0.60930383,-0.21946402,-0.68966687,-0.84299403,4.785671
431,1778416082.3060143,0.74479955,-0.72803026,-0.27940655,-0.74220127,-1.0042624,4.960837
432,1778416082.3164084,0.74479955,-0.72803026,-0.27940655,-0.74220127,-1.0042624,4.960837
433,1778416082.3265321,1.0644523,-0.6802836,-0.1364104,-0.9419542,-1.3672692,5.4628153
434,1778416082.3366587,1.1764711,-0.57357,-0.10732334,-0.98700553,-1.3935363,5.455943
435,1778416082.346741,1.2478777,-0.47368616,-0.09793254,-1.0493138,-1.372767,5.281541
436,1778416082.357089,1.2865994,-0.374717,-0.0962861,-1.2166909,-1.3840679,4.923574
437,1778416082.3672123,1.3556888,-0.34788615,-0.03731925,-1.4639386,-1.4515685,4.6199737
438,1778416082.3774073,1.3948375,-0.32379937,0.06402813,-1.6798794,-1.4769194,4.524221
439,1778416082.3875723,1.3938619,-0.21391493,0.19860914,-1.9463694,-1.38025,4.492761
440,1778416082.3976777,1.3820928,-0.11628727,0.24428254,-2.121535,-1.2321151,4.3687553
441,1778416082.4078496,1.3349559,0.072443254,0.28465074,-2.2119431,-1.0858129,4.0921865
442,1778416082.4179513,1.2425725,0.19921893,0.2716012,-2.1962132,-0.9149234,3.4962873
443,1778416082.428077,1.1769589,0.24300198,0.20104831,-2.0606012,-0.9230174,2.9895744
444,1778416082.4382067,1.1075647,0.23989205,0.07683375,-1.8185458,-1.1174252,2.5636487
445,1778416082.4483297,1.0789044,0.20062146,-0.062442668,-1.5755742,-1.5155567,2.346486
446,1778416082.4584424,1.0978689,0.15269183,-0.13665432,-1.251052,-2.231338,2.34221
447,1778416082.4685729,1.1690316,0.21324414,-0.081346214,-1.0242683,-2.909093,2.6203065
448,1778416082.478689,1.311113,0.30202982,0.022135438,-1.0118983,-3.2383494,2.9536862
449,1778416082.48895,1.6196066,0.41167036,0.15458219,-1.2542591,-3.2766812,3.3660202
450,1778416082.499159,1.9081601,0.6100356,0.2520269,-1.7191275,-2.8845057,3.6036468
451,1778416082.5093434,2.040668,0.7630323,0.27349156,-2.075873,-2.5256224,3.6187658
452,1778416082.519466,2.2141535,1.0090222,0.25239277,-2.7009406,-1.8721492,3.4437528
453,1778416082.5296147,2.3372095,1.2389138,0.2125734,-3.3310483,-1.1355985,3.0779972
454,1778416082.539762,2.3662357,1.4157534,0.18708408,-3.7794232,-0.63148195,2.7123945
455,1778416082.5500078,2.3546495,1.4810619,0.19019403,-4.0787473,-0.30543262,2.4222333
456,1778416082.560122,2.390871,1.4567313,0.22812307,-4.2491784,0.00045814895,2.1858284
457,1778416082.5703464,2.435752,1.4660002,0.22885482,-4.179082,0.14004086,2.0838141
458,1778416082.580597,2.5227082,1.5102711,0.24434352,-3.8756344,0.1600467,1.9608774
459,1778416082.5908022,2.5810041,1.586312,0.27233297,-3.356399,0.14752395,1.7316502
460,1778416082.6010761,2.6056397,1.6531453,0.2961758,-2.9765937,0.14889841,1.505172
461,1778416082.6113255,2.6003346,1.7531509,0.35544756,-2.307238,0.29229903,0.90041536
462,1778416082.6215272,2.502707,1.7458946,0.33154374,-1.7336355,0.57833666,0.113162786
463,1778416082.6317227,2.061035,1.4565483,0.25269768,-0.9246973,1.2102767,-1.377043
464,1778416082.641822,1.7997391,1.302698,0.21373199,-0.70738196,1.421178,-1.7189748
465,1778416082.6519256,1.618936,1.2028141,0.16446081,-0.70738196,1.421178,-1.7189748
466,1778416082.6620193,1.4208146,1.1092111,0.07378479,-0.23716843,1.8190039,-2.2382102
467,1778416082.6721497,1.2781844,1.0267063,-0.044331856,0.059406646,1.9234619,-2.4979806
468,1778416082.6823318,1.1769589,0.9573729,-0.16226557,0.3454443,1.907274,-2.7579038
469,1778416082.6924262,1.0832338,0.88169783,-0.2543441,0.5699373,1.8106046,-3.045316
470,1778416082.702526,1.0340848,0.82852393,-0.301481,0.66950834,1.7304286,-3.2311716
471,1778416082.712672,0.9565802,0.72754246,-0.3536182,0.66950834,1.7304286,-3.2311716
472,1778416082.72282,0.9565802,0.72754246,-0.3536182,0.7602218,1.5622878,-3.5248451
473,1778416082.7329748,0.87870985,0.61058444,-0.37892455,0.7722864,1.3907875,-3.8078284
474,1778416082.743098,0.83504874,0.34654462,-0.32751912,0.70829827,1.1136073,-4.0889792
475,1778416082.7532315,0.845781,0.27154022,-0.2953831,0.68432176,1.078788,-4.1635046
476,1778416082.7634294,0.91883403,0.15994836,-0.26641798,0.66813385,1.052368,-4.1902304
477,1778416082.7735784,0.9860941,0.10823802,-0.24007498,0.6267477,1.0428997,-4.2021422
478,1778416082.7837598,1.0637206,0.06390616,-0.20751211,0.5534439,1.0722213,-4.2783475
479,1778416082.793878,1.1207361,0.0336605,-0.19879209,0.4980079,1.1087204,-4.382958
480,1778416082.8040094,1.1577505,0.006341833,-0.18513274,0.44944412,1.1317806,-4.5243735
481,1778416082.81414,1.1900085,-0.030672522,-0.15391143,0.410196,1.15255,-4.70015
482,1778416082.8244247,1.1900085,-0.030672522,-0.15391143,0.410196,1.15255,-4.70015
483,1778416082.8345277,1.1818373,-0.045734376,-0.13189794,0.39660427,1.1476631,-4.955797
484,1778416082.8446295,1.088783,-0.04853942,-0.12519024,0.4092797,1.0558805,-4.976872
485,1778416082.8547297,1.0045099,-0.017805915,-0.12750745,0.49571714,0.8746063,-4.9535065
486,1778416082.864861,0.9584096,-0.03146525,-0.17397358,0.71761394,0.5224425,-4.8803554
487,1778416082.8750608,0.83053625,0.030611541,-0.1349469,0.96959585,0.07238753,-4.772232
488,1778416082.885191,0.6480866,0.12195834,-0.11293342,1.1713341,-0.4014912,-4.6966376
489,1778416082.8954024,0.5790582,0.08012662,-0.070065066,1.2272283,-0.7985536,-4.586376
490,1778416082.9056327,0.58680254,-0.11762882,0.0020732917,1.159575,-1.1682798,-4.209472
491,1778416082.9158075,0.5545445,-0.21824445,0.10982348,1.0074695,-1.2505939,-3.7186422
492,1778416082.9259503,0.41642675,-0.228306,0.17025384,0.73914695,-1.063211,-3.0059152
493,1778416082.936072,0.30672523,-0.23794071,0.17513217,0.4841107,-0.806953,-2.211332
494,1778416082.9461987,0.21702486,-0.25391725,0.17799819,0.2930626,-0.5331327,-1.3416128
495,1778416082.9564383,0.149277,-0.26702777,0.17488825,0.15592335,-0.2958115,-0.6339254
496,1778416082.9665594,0.11201873,-0.3158111,0.15781409,0.008857546,-0.05955936,0.055588737
497,1778416082.9767,0.10171325,-0.4211831,0.10207913,-0.22678372,0.26893342,1.0384709
498,1778416082.98683,0.10500612,-0.5046636,0.022318374,-0.3903429,0.4569272,1.8099937
499,1778416082.9969423,0.12195834,-0.58332676,-0.056588665,-0.4689918,0.51068336,2.4092526
500,1778416083.0070732,0.16513158,-0.6951625,-0.1387886,-0.49586987,0.44715336,3.1520646
501,1778416083.0172927,0.28166276,-0.825597,-0.25806385,-0.47158796,0.27351493,3.7340665
502,1778416083.0274649,0.43313503,-0.8941375,-0.3448372,-0.45265114,-0.082161374,4.3855543
503,1778416083.0375721,0.6347321,-0.99176514,-0.33526346,-0.5138904,-0.4905248,4.940984
504,1778416083.0476813,0.8183404,-1.0750628,-0.24105065,-0.65057147,-0.70066243,5.4669385
505,1778416083.0577838,1.0192058,-1.0930516,-0.14153264,-0.89934635,-0.6931793,5.9380684
506,1778416083.0679688,1.1660436,-1.0525614,-0.039209604,-1.1565206,-0.5687156,6.2222733
507,1778416083.0780962,1.2794039,-0.9837159,0.0670161,-1.4738652,-0.27977628,6.465703
508,1778416083.0883691,1.4129483,-0.86578226,0.11104306,-1.7267634,0.09193522,6.56054
509,1778416083.0985212,1.4764276,-0.7050411,0.07238227,-1.8724546,0.36880988,6.376364
510,1778416083.1087258,1.495697,-0.5332019,-0.037685126,-1.8819231,0.38560867,6.040083
511,1778416083.1190333,1.4583777,-0.4314886,-0.13012955,-1.6934712,0.07925977,5.517793
512,1778416083.1291645,1.4208757,-0.38825434,-0.23092812,-1.3458889,-0.4100433,5.152496
513,1778416083.1394117,1.4297175,-0.34001982,-0.22787915,-0.72112644,-1.1733195,4.8649306
514,1778416083.149531,1.4148387,-0.14348398,-0.18129106,-0.08475755,-1.8161024,4.584849
515,1778416083.159746,1.4413036,0.015000875,-0.122507155,0.32055154,-2.2996023,4.2803326
516,1778416083.1700757,1.48716,0.13793488,-0.07238227,0.43478334,-2.506533,4.0585885
517,1778416083.1804953,1.4907577,0.29495624,-0.01103723,0.29718593,-2.531273,3.7736201
518,1778416083.1905975,1.4949043,0.38337603,0.0851879,-0.54305923,-1.9720258,3.3718235
519,1778416083.2007186,1.5086856,0.42581752,0.090737,-0.54305923,-1.9720258,3.3718235
520,1778416083.211148,1.5086856,0.42581752,0.090737,-1.0419834,-1.561677,3.3357823
521,1778416083.2214575,1.5663109,0.5207621,0.07677277,-1.3707817,-1.2739595,3.404352
522,1778416083.2317235,1.6960136,0.67656386,0.026708877,-1.7269161,-1.007775,3.5404222
523,1778416083.241855,1.873768,0.8526717,-0.06793079,-2.0511327,-0.9083566,3.5769215
524,1778416083.2520099,2.3254404,1.138969,-0.03286777,-2.6128235,-1.0126618,3.499189
525,1778416083.2621114,2.5077682,1.3856297,0.055917896,-2.878397,-0.93767816,3.2302554
526,1778416083.2722144,2.570577,1.589483,0.14445965,-3.085175,-0.6786713,2.657722
527,1778416083.2823539,2.5155735,1.747236,0.2745282,-3.2592716,-0.18585575,1.8231273
528,1778416083.2924733,2.5155735,1.747236,0.2745282,-3.2592716,-0.18585575,1.8231273
529,1778416083.3025856,2.4221535,1.7181491,0.32032356,-3.35365,0.29810223,1.1898128
530,1778416083.3127618,2.3405633,1.5499685,0.25983223,-3.1682527,0.9999864,0.5172501
531,1778416083.3228989,2.3405633,1.5499685,0.25983223,-3.1682527,0.9999864,0.5172501
532,1778416083.333011,2.4518502,1.6043009,0.1759249,-2.0291417,0.7499898,-0.061086524
533,1778416083.3432438,2.496792,1.5891781,0.20208496,-1.4165965,0.56673026,-0.4540256
534,1778416083.3533664,2.520757,1.5351505,0.2373919,-0.49861875,0.45066583,-1.1375839
535,1778416083.36347,2.432337,1.4479504,0.23726994,0.0364992,0.48487428,-1.6311629
536,1778416083.3735805,2.2647662,1.3193452,0.21043912,0.5140431,0.59666264,-2.232865
537,1778416083.383692,2.0990858,1.1639704,0.19251123,0.7484626,0.7425067,-2.6510024
538,1778416083.3938205,1.8835855,0.96816623,0.1624485,0.8978192,0.95737857,-2.9996538
539,1778416083.4039104,1.8835855,0.96816623,0.1624485,0.8978192,0.95737857,-2.9996538
540,1778416083.4140363,1.5434438,0.73479897,0.09457869,1.0245737,1.4004086,-3.3307428
541,1778416083.4241462,1.5434438,0.73479897,0.09457869,1.0245737,1.4004086,-3.3307428
542,1778416083.4342496,1.2844043,0.5786923,-0.06744295,1.2455542,1.7863227,-3.659083
543,1778416083.4444077,1.2219615,0.50307816,-0.14214244,1.3941472,1.8144225,-3.853796
544,1778416083.4547553,1.15647,0.4230125,-0.22848894,1.5193746,1.7340937,-4.014301
545,1778416083.464882,1.097442,0.33861732,-0.29440743,1.65911,1.5462526,-4.2471933
546,1778416083.475019,1.0609765,0.23964813,-0.32678735,1.7402023,1.282817,-4.486958
547,1778416083.4851568,1.0234133,0.10031073,-0.28495565,1.7162259,1.0224357,-4.6633453
548,1778416083.495284,0.99822897,-0.01841571,-0.21068303,1.6180294,0.90469146,-4.701677
549,1778416083.5055242,0.98127675,-0.11866546,-0.14287418,1.4210253,0.8865182,-4.6237917
550,1778416083.515628,0.98127675,-0.11866546,-0.14287418,1.2837334,0.91858864,-4.5465174
551,1778416083.525724,0.9823744,-0.27013773,-0.06073525,1.0325149,0.9935723,-4.359134
552,1778416083.53589,0.99328965,-0.29440743,-0.017805915,0.8425359,1.0682507,-4.2299366
553,1778416083.5460074,0.9957898,-0.28611428,-0.0071955416,0.75823647,1.1531608,-4.221537
554,1778416083.556281,1.0250598,-0.2895291,-0.0023781876,0.7506007,1.156826,-4.2606325
555,1778416083.5664523,1.0115224,-0.27245492,0.012622688,0.8211556,1.110553,-4.328744
556,1778416083.5765998,0.97792286,-0.23781876,-0.0015244792,0.95157534,0.98914355,-4.442823
557,1778416083.586717,0.94090855,-0.22952558,-0.00048783334,1.0554224,0.8414669,-4.527275
558,1778416083.5968814,0.8716362,-0.22019579,-0.00804925,1.1904236,0.63804877,-4.605924
559,1778416083.6070793,0.8215113,-0.21385394,-0.004024625,1.2915218,0.49770245,-4.615698
560,1778416083.6172528,0.7576662,-0.20452413,-0.0043295207,1.4932601,0.2312125,-4.5349107
561,1778416083.6274369,0.7576662,-0.20452413,-0.0043295207,1.4932601,0.2312125,-4.5349107
562,1778416083.6375527,0.4679541,-0.17464434,-0.048173543,1.8075503,-0.37094793,-4.0508003
563,1778416083.6478062,0.44679436,-0.2570272,-0.04408794,1.7722728,-0.72036284,-3.497967
564,1778416083.6579227,0.44051352,-0.3237384,-0.014086187,1.6106989,-0.9098838,-2.9190195
565,1778416083.6681142,0.43392777,-0.30367625,0.020367041,1.2554808,-0.9776898,-2.1239784
566,1778416083.6784153,0.40843847,-0.23239161,0.05116152,0.8727737,-0.9306532,-1.4837917
567,1778416083.6885517,0.374717,-0.12897095,0.07982173,0.37888917,-0.7602218,-0.7481572
568,1778416083.6986828,0.4173414,-0.11043327,0.11799469,-0.044745877,-0.50442195,-0.08155051
569,1778416083.7088711,0.46277088,-0.15281379,0.14921603,-0.38438696,-0.12599096,0.5488624
570,1778416083.7190073,0.5050295,-0.19915795,0.14104481,-0.57925296,0.100792766,0.95004815
571,1778416083.7291472,0.5681429,-0.2698938,0.12567806,-0.8772025,0.4016439,1.6765196
572,1778416083.7392912,0.626439,-0.28757775,0.0910419,-1.0832168,0.6430884,2.5207355
573,1778416083.7497554,0.70211416,-0.3003834,0.039270584,-1.0807734,0.6986771,2.9894218
574,1778416083.7599833,0.82059664,-0.32648247,-0.030611541,-0.945314,0.6618725,3.455512
575,1778416083.7702346,0.9085896,-0.31983575,-0.07719963,-0.7658723,0.53801954,3.7594175
576,1778416083.7805622,1.0032902,-0.32148215,-0.14122775,-0.57619864,0.2921463,3.944357
577,1778416083.79072,1.0332919,-0.40484068,-0.1510454,-0.5676465,0.17165314,4.0150647
578,1778416083.800984,1.0332919,-0.40484068,-0.1510454,-0.5676465,0.17165314,4.0150647
579,1778416083.8113608,1.0487198,-0.46435636,-0.15317966,-0.5691737,0.117438845,4.1496077
580,1778416083.8216138,1.0729284,-0.5043587,-0.1700709,-0.57619864,0.08124508,4.30492
581,1778416083.8317437,1.0956737,-0.53173834,-0.18507177,-0.6290385,0.011759156,4.655404
582,1778416083.842006,1.1307976,-0.48204032,-0.19958481,-0.8202393,-0.182496,5.047274
583,1778416083.8521345,1.1245779,-0.39532796,-0.21275632,-0.8202393,-0.182496,5.047274
584,1778416083.8622606,1.1843984,-0.22556195,-0.1220803,-0.915687,-0.41722095,4.98069
585,1778416083.8723662,1.2094609,-0.17433943,-0.10689648,-0.83062404,-0.4213443,4.879439
586,1778416083.8827975,1.2094609,-0.17433943,-0.10689648,-0.83062404,-0.4213443,4.879439
587,1778416083.892927,1.138725,0.07695571,-0.21659799,-0.4437936,-0.57436603,4.3455424
588,1778416083.9030483,1.0816485,0.15641156,-0.26019812,-0.2932153,-0.7863363,4.0036106
589,1778416083.9132283,0.9943873,0.19885308,-0.2800773,-0.15470162,-1.1212431,3.612657
590,1778416083.923505,0.9443234,0.21354906,-0.25952733,-0.0917825,-1.4002558,3.3987014
591,1778416083.9336145,0.9443234,0.21354906,-0.25952733,-0.0917825,-1.4002558,3.3987014
592,1778416083.9437191,0.97627646,0.24720955,-0.22141537,-0.062155537,-1.8866574,3.2410982
593,1778416083.953845,1.0575616,0.31160355,-0.17787623,-0.16172658,-1.9704986,3.2872186
594,1778416083.964027,1.1781785,0.37636343,-0.15970443,-0.2958115,-1.9746219,3.3423493
595,1778416083.9741442,1.3351998,0.53131145,-0.12378771,-0.50610185,-1.934763,3.399618
596,1778416083.9844406,1.5228938,0.67455155,-0.074272625,-0.77686787,-1.8368717,3.4465017
597,1778416083.994546,1.7701032,0.8352927,-0.03091644,-1.1293371,-1.6780468,3.5187366
598,1778416084.004781,1.967127,1.0354873,-0.0022562293,-1.4549283,-1.5291485,3.5100317
599,1778416084.0148833,2.1246362,1.2347672,0.026647896,-1.8707749,-1.294118,3.2661438
600,1778416084.0250514,2.300256,1.4111799,0.06530869,-2.1629212,-1.0780244,2.9280298
601,1778416084.0351858,2.4052625,1.5428339,0.14872819,-2.4523184,-0.7521278,2.4248295
602,1778416084.0452921,2.4128847,1.671195,0.24086772,-2.648559,-0.31581733,1.8254181
603,1778416084.0554214,2.4453256,1.6951598,0.28434587,-2.6832256,0.10629055,1.2611313
604,1778416084.0655735,2.4920967,1.6556454,0.295627,-2.531273,0.36819902,0.90392786
605,1778416084.0756996,2.587285,1.575092,0.26702777,-2.1126773,0.5479461,0.56230146
606,1778416084.0858164,2.6710095,1.5832632,0.24330688,-1.5199854,0.5723807,0.25411993
607,1778416084.095939,2.6768024,1.6158869,0.20708527,-0.83367836,0.5358815,-0.24831672
608,1778416084.1060905,2.6322267,1.6066182,0.18543765,-0.30451632,0.4822781,-0.79336125
609,1778416084.116235,2.52594,1.5486879,0.1949504,0.15027285,0.4615087,-1.3949108
610,1778416084.1264079,2.3200746,1.3909957,0.22489117,0.58169645,0.551764,-2.1015291
611,1778416084.136717,2.0998178,1.1538478,0.24074577,0.86269444,0.7623598,-2.631302
612,1778416084.1468446,1.876573,0.93999386,0.22733033,1.0407617,1.0361801,-2.9509373
613,1778416084.1569722,1.6893668,0.78748494,0.18952326,1.1571314,1.3347405,-3.1253393
614,1778416084.167167,1.5607008,0.69930905,0.14531335,1.2388347,1.5899295,-3.2407928
615,1778416084.177386,1.4334983,0.6149749,0.08354146,1.3029755,1.7547104,-3.3415856
616,1778416084.1875193,1.3457493,0.53399456,0.022562291,1.4213307,1.9048306,-3.4881933
617,1778416084.1977506,1.2740377,0.46716142,-0.04439283,1.6007724,1.9761491,-3.656181
618,1778416084.2078755,1.2740377,0.46716142,-0.04439283,1.6007724,1.9761491,-3.656181
619,1778416084.218009,1.2740377,0.46716142,-0.04439283,1.6007724,1.9761491,-3.656181
620,1778416084.2281318,1.1362858,0.22909874,-0.19562118,2.011121,1.7325666,-4.2223005
621,1778416084.2382596,1.1232972,0.11409202,-0.20464608,2.053118,1.5296066,-4.382042
622,1778416084.2483923,1.1465304,-0.006768687,-0.1791568,2.011121,1.3332134,-4.4736714
623,1778416084.2585256,1.1465304,-0.006768687,-0.1791568,2.011121,1.3332134,-4.4736714
624,1778416084.2686753,1.1465304,-0.006768687,-0.1791568,2.011121,1.3332134,-4.4736714
625,1778416084.2787788,1.296722,-0.22312276,-0.08555377,1.8186985,1.2461652,-4.5000916
626,1778416084.2889118,1.3102595,-0.24172144,-0.10348164,1.6901114,1.220356,-4.726417
627,1778416084.2991278,1.3266628,-0.28611428,-0.11787273,1.6381879,1.1468995,-4.89242
628,1778416084.309377,1.3241626,-0.3284948,-0.109335646,1.570229,0.9940305,-5.057048
629,1778416084.3196766,1.2842213,-0.34502012,-0.093481064,1.511128,0.83276206,-5.170516
630,1778416084.3298004,1.2327548,-0.3527035,-0.061649937,1.4408784,0.69806623,-5.2079315
631,1778416084.339925,1.1170774,-0.31983575,-0.009390792,1.3365731,0.54305923,-5.230381
632,1778416084.350062,0.98310614,-0.27928457,-0.012500729,1.3365731,0.54305923,-5.230381
633,1778416084.3602166,0.904443,-0.27294275,-0.053600688,1.3585643,0.36086863,-5.10607
634,1778416084.3703377,0.904443,-0.27294275,-0.053600688,1.3585643,0.36086863,-5.10607
635,1778416084.3804467,0.904443,-0.27294275,-0.053600688,1.3585643,0.36086863,-5.10607
636,1778416084.3905625,0.5570447,-0.33465368,-0.09762765,1.3859005,0.055588737,-4.7433686
637,1778416084.4006958,0.5241769,-0.4496604,-0.086163566,1.0900891,-0.3381139,-3.9994874
638,1778416084.4108393,0.46149033,-0.55869114,-0.015671646,0.74082685,-0.43127087,-3.339142
639,1778416084.4209468,0.37099725,-0.53125054,0.006890646,0.3979787,-0.3471242,-2.7322476
640,1778416084.4311795,0.18446198,-0.43411067,-0.0017683958,-0.021685716,-0.2312125,-1.941177
641,1778416084.4413335,0.08183405,-0.43301308,0.03457519,-0.41996986,0.01740966,-0.42210788
642,1778416084.4514263,0.09573729,-0.55259323,-0.055186145,-0.50717086,0.16661349,0.5945246
643,1778416084.4615207,0.16580236,-0.7063217,-0.108055085,-0.50717086,0.16661349,0.5945246
644,1778416084.471649,0.16580236,-0.7063217,-0.108055085,-0.50717086,0.16661349,0.5945246
645,1778416084.4817603,0.16580236,-0.7063217,-0.108055085,-0.50717086,0.16661349,0.5945246
646,1778416084.4919345,0.16580236,-0.7063217,-0.108055085,-0.50717086,0.16661349,0.5945246
647,1778416084.5020518,0.78157,-0.81059605,-0.11604336,-0.5323691,-0.13820826,4.93686
648,1778416084.5121636,0.9802401,-0.76406896,-0.16671704,-0.3817908,-0.09682214,5.302463
649,1778416084.5223556,0.9802401,-0.76406896,-0.16671704,-0.3817908,-0.09682214,5.302463
650,1778416084.532459,0.9802401,-0.76406896,-0.16671704,-0.3817908,-0.09682214,5.302463
651,1778416084.5425992,1.2431213,-0.79461956,-0.22050068,-0.376293,-0.105068825,5.733123
652,1778416084.552731,1.2880019,-0.8009614,-0.20995127,-0.5375614,-0.065515295,5.9537983
653,1778416084.5628839,1.3539814,-0.7366893,-0.20037755,-0.6608035,-0.038331795,6.115372
654,1778416084.573093,1.3539814,-0.7366893,-0.20037755,-0.6608035,-0.038331795,6.115372
655,1778416084.5834382,1.3539814,-0.7366893,-0.20037755,-0.6608035,-0.038331795,6.115372
656,1778416084.5935652,1.3539814,-0.7366893,-0.20037755,-0.6608035,-0.038331795,6.115372
657,1778416084.603832,1.5032585,-0.25275865,-0.18635234,-0.6591236,-0.09987647,5.9499803
658,1778416084.6139657,1.4564874,-0.09878625,-0.24348982,-0.5529858,-0.2078469,5.597664
659,1778416084.6241186,1.3103204,0.03433127,-0.28172377,-0.43325618,-0.5343544,4.8985286
660,1778416084.6342556,1.3103204,0.03433127,-0.28172377,-0.43325618,-0.5343544,4.8985286
661,1778416084.644451,1.1174433,-0.022501312,-0.24269708,-0.35735616,-0.82802784,4.4017425
662,1778416084.6545541,1.1000642,-0.030672522,-0.2031826,-0.33582318,-1.3336716,4.180609
663,1778416084.6647294,1.1312245,0.06591848,-0.15915562,-0.39553526,-1.5250251,4.2714753
664,1778416084.674876,1.2354989,0.14391084,-0.10403045,-0.4978552,-1.6378825,4.301713
665,1778416084.6850958,1.3764828,0.24629487,-0.036587503,-0.6107125,-1.6626225,4.306447
666,1778416084.695226,1.5030146,0.35489875,-0.020732917,-0.69974613,-1.6259706,4.242612
667,1778416084.705495,1.6383272,0.4961265,-0.02207446,-0.8335256,-1.5806139,4.056756
668,1778416084.7156327,1.7643102,0.6285733,-0.036953375,-0.93554014,-1.5548048,3.9061778
669,1778416084.7257466,1.967188,0.73126215,-0.05195425,-1.1899655,-1.5836681,3.717726
670,1778416084.7358816,1.967188,0.73126215,-0.05195425,-1.1899655,-1.5836681,3.717726
671,1778416084.745993,2.5680766,0.97578865,0.10921369,-1.9031507,-1.5279267,3.695582
672,1778416084.7561662,2.8290675,1.2010458,0.24117261,-2.1606305,-1.2719742,3.5065193
673,1778416084.7662904,2.9546845,1.4804523,0.37032646,-2.5969408,-0.5366451,2.754544
674,1778416084.7764523,2.9634047,1.6629629,0.47136897,-2.9092457,0.1330159,2.0575469
675,1778416084.7865603,2.9221826,1.6654631,0.50021213,-3.183677,0.84711736,1.3736832
676,1778416084.7966783,2.888766,1.5391142,0.4188659,-3.3180673,1.5749633,0.72143185
677,1778416084.8068428,2.8651671,1.4453282,0.32709226,-3.1829133,1.8527542,0.37308595
678,1778416084.8171668,2.7961998,1.3642869,0.22373258,-2.5514314,1.7912096,-0.1301143
679,1778416084.8272948,2.7476604,1.3242846,0.19013305,-2.0690005,1.622,-0.43004912
680,1778416084.8374157,2.5880778,1.2250104,0.18885247,-0.9460775,1.2104294,-1.0891727
681,1778416084.847557,2.4364836,1.1486646,0.21568331,-0.03848451,0.9990701,-1.6701056
682,1778416084.8576665,2.2118363,1.0353652,0.27025968,0.55863625,0.98853266,-2.1152737
683,1778416084.867873,1.9692612,0.8732217,0.26824737,1.0827587,1.1458305,-2.5670085
684,1778416084.8780522,1.7874823,0.73345745,0.24105065,1.3338243,1.3374895,-2.8151724
685,1778416084.8882701,1.6147894,0.58820504,0.17933974,1.5118915,1.5787812,-2.9793425
686,1778416084.8984323,1.4942335,0.49795586,0.10104248,1.6465873,1.7626517,-3.0795245
687,1778416084.90861,1.4295346,0.46527106,0.04408794,1.7902933,1.8678732,-3.2042937
688,1778416084.918876,1.3867882,0.43886706,-0.007683375,1.8828394,1.8842138,-3.303101
689,1778416084.9290102,1.3387976,0.41642675,-0.04530752,2.0563252,1.8759671,-3.541033
690,1778416084.9391892,1.2993441,0.35245958,-0.09726177,2.251802,1.8507689,-3.8696785
691,1778416084.9493186,1.287941,0.24068478,-0.18269359,2.470492,1.7252362,-4.2502475
692,1778416084.9594777,1.2797087,0.16311927,-0.23324533,2.580142,1.5737416,-4.477795
693,1778416084.9696834,1.2861116,0.0670161,-0.26574722,2.63344,1.3284792,-4.711298
694,1778416084.9798772,1.2869654,0.00024391667,-0.26391783,2.607631,1.1259774,-4.8727193
695,1778416084.9902232,1.2690375,-0.11171384,-0.20769504,2.4390323,0.9060659,-5.09538
696,1778416085.0004516,1.3036736,-0.19354787,-0.16354613,2.2679899,0.82741696,-5.1805954
697,1778416085.0105693,1.3293458,-0.23001343,-0.097749606,2.0525072,0.7984009,-5.228701
698,1778416085.020766,1.3411148,-0.25044146,-0.06658925,1.775938,0.8565858,-5.3921075
699,1778416085.0309203,1.3431271,-0.2859923,-0.045917314,1.5922203,0.8791878,-5.57384
700,1778416085.0411906,1.3403221,-0.35898435,0.0031709166,1.4086553,0.89461213,-5.7555723
701,1778416085.051317,1.3126985,-0.43539125,0.06695513,1.2318097,0.95707315,-6.000835
702,1778416085.0615277,1.3126985,-0.43539125,0.06695513,1.2318097,0.95707315,-6.000835
703,1778416085.0716784,1.1576285,-0.38124177,0.0307335,1.3327552,0.8720101,-6.1769166
704,1778416085.081782,1.0632328,-0.38758358,-0.029209021,1.3912456,0.68233645,-6.148359
705,1778416085.0918849,1.0214621,-0.41252404,-0.07555319,1.5152513,0.31627548,-6.030309
706,1778416085.1019843,0.92596865,-0.38124177,-0.08805392,1.6044376,-0.010995574,-5.9018745
707,1778416085.1121392,0.92596865,-0.38124177,-0.08805392,1.6044376,-0.010995574,-5.9018745
708,1778416085.1223667,0.6642461,-0.44045252,-0.05945469,1.5578591,-0.7414377,-5.400812
709,1778416085.1325016,0.6642461,-0.44045252,-0.05945469,1.5578591,-0.7414377,-5.400812
710,1778416085.1426356,0.28172377,-0.49722412,0.15970443,0.6542367,-0.6986771,-3.8304305
711,1778416085.1527858,0.28172377,-0.49722412,0.15970443,0.6542367,-0.6986771,-3.8304305
712,1778416085.1629183,0.033294626,-0.32197002,0.20336552,-0.35903606,-0.1001819,-1.4225525
713,1778416085.1730871,0.022501312,-0.3030055,0.18287653,-0.6404922,0.2321288,-0.27275133
714,1778416085.1831949,0.06213777,-0.37282664,0.15153323,-0.8330675,0.4361578,0.6055202
715,1778416085.1933265,0.102688916,-0.45283127,0.11049425,-1.0332786,0.6207918,1.7078265
716,1778416085.2034614,0.13994719,-0.5119201,0.07957781,-1.1404854,0.70005155,2.5825856
717,1778416085.213558,0.23507468,-0.58570486,0.022196416,-1.1702651,0.7115053,3.6096027
718,1778416085.223803,0.23507468,-0.58570486,0.022196416,-1.077719,0.6388123,4.301102
719,1778416085.2342167,0.3714241,-0.63174415,-0.050917607,-1.077719,0.6388123,4.301102
720,1778416085.2443244,0.5867415,-0.673088,-0.1516552,-0.8868236,0.3930918,4.969236
721,1778416085.2544882,0.9154193,-0.6734539,-0.20543882,-0.5349652,-0.32620203,5.527567
722,1778416085.264671,1.0078636,-0.7265058,-0.1290929,-0.4868596,-0.5484043,5.733581
723,1778416085.2747865,1.0994544,-0.7833994,-0.020610958,-0.50762904,-0.50717086,5.935625
724,1778416085.2849712,1.162141,-0.7974856,0.038599815,-0.6078109,-0.27015516,6.2135687
725,1778416085.295134,1.2572684,-0.71717596,0.01975725,-0.7545713,0.0154243475,6.418514
726,1778416085.3053193,1.3000149,-0.57064307,-0.06445498,-0.9063713,0.16814066,6.4215684
727,1778416085.3154407,1.3183087,-0.51179814,-0.12378771,-0.9656252,0.16126843,6.325357
728,1778416085.3256788,1.3183087,-0.51179814,-0.12378771,-0.9656252,0.16126843,6.325357
729,1778416085.335807,1.3156865,-0.3316657,-0.23623328,-0.82634795,-0.45005497,5.6978455
730,1778416085.3459222,1.2453165,-0.2511122,-0.20921952,-0.4700608,-0.79702646,5.379432
731,1778416085.3560612,1.2026922,-0.16232654,-0.19549921,-0.0693332,-1.0995574,5.1008773
732,1778416085.3661783,1.1046985,-0.039392542,-0.15793604,0.2761111,-1.276403,4.816978
733,1778416085.3763013,1.0226207,-0.00219525,-0.122324206,0.43035457,-1.3038919,4.6097417
734,1778416085.3864543,0.9728616,0.01097625,-0.13781293,0.46563202,-1.2111931,4.43702
735,1778416085.3965638,0.9618854,0.080065645,-0.20428021,0.39003745,-1.1542299,4.244597
736,1778416085.4066775,0.9813987,0.10909174,-0.32233587,0.27687466,-1.2429581,4.022853
737,1778416085.4168162,1.0132909,0.10799411,-0.35642326,0.20066923,-1.3946054,3.8948767
738,1778416085.4269438,1.074575,0.090371124,-0.3667897,0.09590584,-1.5978707,3.8443277
739,1778416085.4372182,1.1790932,0.08323657,-0.24013597,-0.081855945,-1.7632625,3.8776197
740,1778416085.4473464,1.3382488,0.077077664,-0.10110346,-0.27168232,-1.6789632,4.004527
741,1778416085.4574702,1.577653,0.12336086,-0.008415125,-0.50946164,-1.4256067,4.217719
742,1778416085.4675984,1.8343143,0.2001946,0.013049542,-0.75441855,-1.1491902,4.4420595
743,1778416085.4778233,2.2698884,0.33910516,-0.078480184,-1.1058189,-0.8926268,4.683351
744,1778416085.48808,2.6978402,0.6243657,-0.09640807,-1.4162911,-0.89812464,4.697401
745,1778416085.49833,3.0081024,0.9474333,0.009451771,-1.6140587,-0.91904676,4.2282567
746,1778416085.5085495,3.1140842,1.1338466,0.15196009,-1.6833919,-0.7861836,3.5146132
747,1778416085.5188024,3.117011,1.2126317,0.29885888,-1.732872,-0.33628133,2.5442538
748,1778416085.529024,3.050178,1.1128088,0.3259946,-1.7528778,0.2846632,1.758681
749,1778416085.5392447,3.064874,0.96438557,0.21928109,-1.6998852,0.7087564,1.346347
750,1778416085.5495305,3.0624957,0.8747462,-0.0,-1.5570955,0.88514376,0.9647089
751,1778416085.5596333,3.102681,0.8613307,-0.12848312,-1.2993103,0.61590487,0.5737552
752,1778416085.5697467,3.0491412,0.91511434,-0.047380816,-0.8217665,0.22342396,-0.44837508
753,1778416085.5799875,2.944623,0.95590943,0.07049192,-0.8217665,0.22342396,-0.44837508
754,1778416085.590167,2.7089386,0.93834746,0.20909756,-0.72097373,0.4529566,-1.1867584
755,1778416085.6003504,2.3962984,0.82809705,0.29702953,-0.72127914,0.9219484,-1.8492419
756,1778416085.6104794,1.7116853,0.60723054,0.24550213,-0.636827,1.8536706,-2.5670085
757,1778416085.620776,1.7116853,0.60723054,0.24550213,-0.636827,1.8536706,-2.5670085
758,1778416085.6311977,1.4950873,0.5404583,0.14360595,-0.3950771,2.0308216,-2.6267207
759,1778416085.641373,1.2932462,0.5603985,0.034270294,-0.07086037,1.9144517,-2.649628
760,1778416085.6515074,1.1372005,0.63796407,-0.00060979166,0.44028112,1.5726726,-2.7690523
761,1778416085.6616316,1.1372005,0.63796407,-0.00060979166,1.3330606,0.91996306,-3.2513304
762,1778416085.6717336,1.1394567,0.64826953,0.048905294,1.6528486,0.75411314,-3.689168
763,1778416085.6818652,1.15336,0.5858269,0.0307335,1.8092301,0.70356405,-4.152051
764,1778416085.6923072,1.15336,0.5858269,0.0307335,1.8092301,0.70356405,-4.152051
765,1778416085.7024133,1.1889108,0.35233763,0.023781875,1.6928604,0.8126035,-4.807815
766,1778416085.7125297,1.2077534,0.2675156,0.028111396,1.5221235,0.94974273,-4.979621
767,1778416085.7226424,1.2077534,0.2675156,0.028111396,1.5221235,0.94974273,-4.979621
768,1778416085.7327816,1.2753183,0.14854525,0.040246252,1.317331,1.1293371,-5.0764427
769,1778416085.742884,1.4531946,0.045917314,-0.017683959,0.79213953,1.5529722,-5.4266214
770,1778416085.7530208,1.5187472,0.006829667,-0.03811198,0.7067711,1.6076446,-5.7474785
771,1778416085.7631645,1.6139966,-0.06591848,-0.06628435,0.77640975,1.5409076,-6.0358067
772,1778416085.7734702,1.6582065,-0.21110988,-0.035428897,0.968985,1.4155275,-6.3536096
773,1778416085.7835999,1.6381443,-0.34800813,-0.0023781876,1.2208142,1.2802209,-6.569245
774,1778416085.793706,1.5646034,-0.4776498,-0.024696562,1.5384641,1.1323915,-6.731582
775,1778416085.803832,1.527711,-0.591254,-0.04384402,1.7547104,0.8961393,-6.6863785
776,1778416085.8139434,1.4494138,-0.6916257,-0.06286953,1.9401081,0.57436603,-6.5260262
777,1778416085.8241615,1.4140459,-0.75211704,-0.09201756,1.9981402,0.37507126,-6.4266076
778,1778416085.8346934,1.4140459,-0.75211704,-0.09201756,1.9981402,0.37507126,-6.4266076
779,1778416085.844799,1.1085403,-0.77175236,-0.058174126,1.7427986,-0.2264783,-5.8803415
780,1778416085.8549118,0.93950605,-0.86950195,-0.008293167,1.4706581,-0.33582318,-5.5046597
781,1778416085.8652198,0.8308411,-0.9824354,0.042868353,1.1520919,-0.2929099,-4.9851184
782,1778416085.8753479,0.646867,-0.99188715,0.096651986,0.6386596,-0.10048734,-4.1573963
783,1778416085.8854837,0.42691517,-0.9209684,0.12915388,0.17272215,0.21471913,-3.2578971
784,1778416085.8956342,0.28715092,-0.8979792,0.14073992,-0.09758572,0.49021935,-2.4336872
785,1778416085.905746,0.21348806,-0.8452932,0.11390909,-0.29764408,0.79809546,-1.267698
786,1778416085.9158707,0.1700709,-0.7848629,0.08744413,-0.3576616,0.9505063,-0.5656612
787,1778416085.925984,0.10153031,-0.6904671,-0.013537374,-0.3631594,1.099252,0.5027421
788,1778416085.9361181,0.08689531,-0.600035,-0.13470298,-0.2932153,0.98944896,1.4990633
789,1778416085.946569,0.08689531,-0.600035,-0.13470298,-0.2932153,0.98944896,1.4990633
790,1778416085.956889,0.28995594,-0.5950347,-0.257576,0.004428773,0.36132678,3.3672419
791,1778416085.967021,0.4601488,-0.63625664,-0.31971377,0.19211712,0.08674286,4.1039453
792,1778416085.977137,0.6050963,-0.65253806,-0.368802,0.2857322,-0.15241088,4.630053
793,1778416085.987252,0.8054128,-0.65479434,-0.45130682,0.25702155,-0.33307427,4.9054008
794,1778416085.9973853,0.9431648,-0.6565017,-0.49460202,0.06001751,-0.5925393,5.124701
795,1778416086.0076177,1.0419511,-0.6949186,-0.41789025,-0.34529158,-0.7867944,5.3462925
796,1778416086.0177302,1.1761053,-0.7045533,-0.30105415,-0.8712466,-0.788627,5.646533
797,1778416086.0278957,1.2315962,-0.64796466,-0.2461729,-1.1823297,-0.7182248,5.8013873
798,1778416086.0380812,1.3270286,-0.5762531,-0.20220692,-1.625207,-0.5842926,5.946773
799,1778416086.0482526,1.3837392,-0.49978524,-0.19848719,-1.8819231,-0.5225952,5.9628086
800,1778416086.0583649,1.367092,-0.3715461,-0.17537609,-1.9527835,-0.5934556,5.8239894
801,1778416086.0685725,1.3014174,-0.3211163,-0.08299265,-1.840537,-0.7122689,5.5999546
802,1778416086.0787048,1.319833,-0.22696446,-0.052990895,-1.5824465,-0.8211556,5.392871
803,1778416086.088838,1.2694643,-0.01981823,-0.07207738,-1.2557862,-1.0340421,4.931668
804,1778416086.0991373,1.185435,0.0942738,-0.06512575,-1.0047206,-1.2815952,4.476115
805,1778416086.1095803,1.0789044,0.07451654,-0.01597654,-0.73761976,-1.5558738,4.0472875
806,1778416086.1197608,0.9699956,0.03866079,0.04981998,-0.50976706,-1.7114917,3.8673878
807,1778416086.1298714,0.92920053,-0.00219525,0.09012721,-0.38148534,-1.7435621,3.8684568
808,1778416086.1400008,0.9065772,0.07634591,0.11403105,-0.17348573,-1.7157677,3.9092321
809,1778416086.1501253,1.0681721,0.29599288,0.0775655,-0.05955936,-1.6572775,3.8605156
810,1778416086.160515,1.0681721,0.29599288,0.0775655,-0.02321288,-1.5706873,3.686419
811,1778416086.170627,1.1828738,0.42307347,0.048173543,-0.06872234,-1.5282321,3.5866952
812,1778416086.1808438,1.3704457,0.5173473,0.005061271,-0.21700987,-1.5528195,3.578296
813,1778416086.1911237,1.8513886,0.857733,0.058844898,-0.35216382,-1.6267341,3.6871827
814,1778416086.201302,1.8513886,0.857733,0.058844898,-0.45707992,-1.6539177,3.7788124
815,1778416086.2115736,2.2692788,1.1482987,0.20854875,-0.60154957,-1.5012014,3.7988183
816,1778416086.2217226,2.6076522,1.422583,0.30044436,-0.7675522,-1.0468704,3.5479054
817,1778416086.2320385,2.7965655,1.5993617,0.29190728,-0.8874345,-0.70249504,3.2363641
818,1778416086.2421565,2.9918818,1.8857199,0.23641624,-1.14018,-0.20693061,2.424677
819,1778416086.252334,3.0501168,1.9598094,0.25471,-1.3930782,0.2041817,1.3878858
820,1778416086.2624497,2.8566911,1.6680852,0.29806617,-1.6313156,1.1119275,-0.15867224
821,1778416086.2726433,2.812969,1.5202106,0.20037755,-1.3623822,1.3069462,-0.5502369
822,1778416086.2827454,2.78937,1.428437,0.1012864,-0.9728029,1.2432635,-0.8588765
823,1778416086.2929165,2.78937,1.428437,0.1012864,-0.49464813,1.0535898,-1.2114985
824,1778416086.3030846,2.646252,1.235377,0.039270584,0.25320363,0.77671516,-1.8507689
825,1778416086.313208,2.5043535,1.1565919,0.05921077,0.66523224,0.6899723,-2.3199134
826,1778416086.323343,2.28867,1.0022537,0.06780884,0.97341377,0.7351763,-2.8368583
827,1778416086.3334675,2.0773773,0.8757219,0.073723815,1.041678,0.88422745,-3.1358767
828,1778416086.3438144,2.0773773,0.8757219,0.073723815,1.041678,0.88422745,-3.1358767
829,1778416086.3539155,1.6521086,0.5937542,0.0482955,0.77732605,1.4741706,-3.4663548
830,1778416086.364053,1.5442364,0.49960235,-0.02561125,0.6960809,1.7230982,-3.4811683
831,1778416086.3741553,1.4998436,0.4785645,-0.114823766,0.7948884,1.784032,-3.4735324
832,1778416086.3842707,1.4805741,0.49454108,-0.17568098,0.95004815,1.7059939,-3.5607336
833,1778416086.3944352,1.5005754,0.4797231,-0.2476364,1.180497,1.4923438,-3.803247
834,1778416086.4045813,1.5257597,0.4411843,-0.2728208,1.352761,1.2380711,-4.010941
835,1778416086.4146872,1.5521028,0.3778269,-0.2336112,1.4940237,0.9622655,-4.2794166
836,1778416086.4248266,1.5429559,0.30142003,-0.18934031,1.536937,0.8762862,-4.54667
837,1778416086.434945,1.53948,0.16793664,-0.15299673,1.4888313,0.88239485,-4.8765373
838,1778416086.4453053,1.5275282,0.03683142,-0.14147167,1.3697126,0.93844175,-5.182428
839,1778416086.455405,1.521918,-0.120067984,-0.13128816,1.1995866,0.98761636,-5.4754906
840,1778416086.4655006,1.5860682,-0.28580934,-0.09988388,0.9735665,1.0152581,-5.6555433
841,1778416086.4756691,1.6258876,-0.40325522,-0.07402871,0.7612908,1.0706941,-5.806274
842,1778416086.4857864,1.6759514,-0.5577155,-0.046039272,0.61361414,1.0882565,-5.9050817
843,1778416086.495918,1.6845495,-0.69174767,-0.025306353,0.5166393,1.0923798,-6.0203824
844,1778416086.5060337,1.6333879,-0.7759599,0.012866604,0.47815478,1.0575604,-6.101933
845,1778416086.5162072,1.5081367,-0.90730906,0.072016396,0.48456886,1.0876455,-6.2022676
846,1778416086.5263329,1.3451395,-1.0003022,0.06390616,0.52122074,1.1357512,-6.202573
847,1778416086.5364869,1.1165286,-1.0635986,0.0033538544,0.5839872,1.0679451,-6.0736804
848,1778416086.5466604,0.869197,-1.106345,-0.01975725,0.69058317,0.93828905,-5.770233
849,1778416086.5568128,0.6246706,-1.1327491,-0.16513158,0.91706145,0.6960809,-5.2920785
850,1778416086.5669947,0.4680151,-1.1054304,-0.20848778,1.0758864,0.21899518,-4.6642613
851,1778416086.5771258,0.14982581,-0.8877348,-0.1920234,1.0922271,-0.039095376,-4.202295
852,1778416086.5872514,0.0006707709,-0.8827954,-0.19732858,0.8914051,-0.32238412,-3.6279287
853,1778416086.5974681,-0.06835765,-0.9654831,-0.12945877,0.45707992,-0.43081272,-2.840676
854,1778416086.607755,-0.24891695,-0.82669455,-0.04451479,-0.18646662,-0.31597003,-1.9886718
855,1778416086.6178725,-0.3889861,-0.72845715,0.056588665,-0.6782131,-0.07666359,-1.3214543
856,1778416086.6280804,-0.48447952,-0.7047972,0.15025267,-1.0054842,0.2932153,-0.5467244
857,1778416086.638197,-0.56777704,-0.68912554,0.14555727,-1.1172725,0.80909103,0.59299743
858,1778416086.648308,-0.55576414,-0.70607775,-0.052807957,-0.8970556,1.0386237,1.8587102
859,1778416086.6584299,-0.40106,-0.7212616,-0.28050417,-0.4885395,0.7414377,3.219718
860,1778416086.6686058,-0.098054506,-0.71199274,-0.40325522,-0.0364992,0.1001819,4.5356746
861,1778416086.6787386,0.21086596,-0.6963821,-0.5125299,0.34804046,-0.48181996,5.359426
862,1778416086.6888855,0.5998521,-0.66570956,-0.60466945,0.7974846,-1.2608259,5.999766
863,1778416086.6990085,0.974996,-0.70302886,-0.6174751,1.1392636,-1.9500346,6.2486935
864,1778416086.7092283,1.249829,-0.7762038,-0.5222866,1.2241739,-2.284636,6.318179
865,1778416086.7193637,1.5532614,-0.93249345,-0.31764048,0.9602802,-2.2638667,6.495941
866,1778416086.7296395,1.7784575,-1.0199986,-0.10689648,0.37507126,-1.7611245,6.881855
867,1778416086.7399163,1.8768167,-1.0179863,-0.030855458,-0.027947085,-1.2945762,7.1776667
868,1778416086.7501004,2.060608,-0.86742866,0.009329813,-0.8396343,-0.26358834,7.655974
869,1778416086.7602658,2.1649435,-0.61082834,-0.08744413,-1.4416419,0.33185256,7.6396337
870,1778416086.7703805,2.194945,-0.25099024,-0.27404037,-1.9280435,0.25457808,6.719365
871,1778416086.7804847,2.0832314,-0.11488476,-0.25306356,-1.7515033,-0.2554944,5.9852576
872,1778416086.7908895,2.0832314,-0.11488476,-0.25306356,-1.7515033,-0.2554944,5.9852576
873,1778416086.8014991,1.9740785,-0.056649648,-0.17665665,-1.4162911,-0.81107634,5.382639
874,1778416086.8119123,1.8269969,-0.00030489583,-0.09518848,-1.0491611,-1.2643384,4.9965725
875,1778416086.822019,1.6671095,0.10616472,0.22336671,-0.7664832,-1.4818064,4.8834095
876,1778416086.8321416,1.601069,0.31300604,0.27733323,-0.2125811,-1.0965031,4.8527136
877,1778416086.8423648,1.5577738,0.5434463,0.19781642,-0.11713341,-0.8136725,4.5291076
878,1778416086.8524857,1.5577738,0.5434463,0.19781642,-0.11713341,-0.8136725,4.5291076
879,1778416086.8625953,1.4192291,0.75004375,0.097871564,-0.3839288,-0.5326745,3.3991597
880,1778416086.872757,1.3488592,0.66314846,0.0086590415,-0.5039638,-0.5381723,3.03936
881,1778416086.8828828,1.3509934,0.65814817,-0.05116152,-0.48609602,-0.70234233,2.9765937
882,1778416086.8931038,1.4115458,0.73510385,-0.060125455,-0.36377025,-0.9647089,2.9982793
883,1778416086.9032645,1.5471635,0.8506594,0.013110521,-0.17608191,-1.2299771,2.9923234
884,1778416086.9133863,1.7029651,0.98182553,0.10659158,-0.08368854,-1.2461652,2.8947377
885,1778416086.923682,1.7029651,0.98182553,0.10659158,-0.08368854,-1.2461652,2.8947377
886,1778416086.9337974,1.9997507,1.1877522,0.11153089,-0.22495113,-0.97051215,2.4376578
887,1778416086.9439552,2.1875057,1.3488592,0.06415008,-0.4981606,-0.72082096,1.9084958
888,1778416086.9541001,2.1875057,1.3488592,0.06415008,-0.4981606,-0.72082096,1.9084958
889,1778416086.9643612,2.3315995,1.492526,0.06610142,-1.0881038,-0.2837469,0.75640386
890,1778416086.974483,2.2967196,1.4600242,0.11025034,-1.3351988,0.011759156,0.26251933
891,1778416086.984605,2.239704,1.3606892,0.15677744,-1.6035212,0.44959682,-0.26160303
892,1778416086.9948506,2.2675712,1.2397674,0.13110521,-1.6980526,0.8009971,-0.5842926
893,1778416087.0051713,2.30922,1.2079364,0.08933448,-1.6363553,0.9056077,-0.7841983
894,1778416087.0152938,2.4579484,1.182386,0.023233064,-1.377043,0.8028296,-1.1136073
895,1778416087.0254076,2.5385017,1.1390299,0.063113436,-0.97005403,0.6617198,-1.585348
896,1778416087.035535,2.5400872,1.1098208,0.10317675,-0.70661837,0.62873304,-1.9086485
897,1778416087.0456476,2.4183726,1.0130469,0.1659853,-0.26511553,0.7431176,-2.593123
898,1778416087.0559294,2.2783036,0.901577,0.1788519,-0.045662176,0.9443977,-3.0931163
899,1778416087.0660572,2.07817,0.72577405,0.1864743,0.034972034,1.138042,-3.3835826
900,1778416087.0763237,1.8754752,0.56363046,0.18043736,0.06719518,1.4369078,-3.6160169
901,1778416087.0864863,1.7041237,0.44429418,0.17354672,0.09208794,1.6442965,-3.6771033
902,1778416087.09661,1.610094,0.35508168,0.11799469,0.19379699,1.8535179,-3.6986363
903,1778416087.1067286,1.5287478,0.32922652,0.051344458,0.37094793,1.9501873,-3.7491853
904,1778416087.1168814,1.4967337,0.31306705,-0.00048783334,0.56489766,1.9576705,-3.8844922
905,1778416087.1270132,1.4788668,0.28373605,-0.051832296,0.79183406,1.8984165,-4.0789
906,1778416087.1372561,1.4527677,0.24513626,-0.08604161,1.0230466,1.7716619,-4.3066
907,1778416087.1473885,1.428498,0.14177656,-0.11305538,1.2832751,1.5711454,-4.609284
908,1778416087.1575468,1.4262418,-0.018537667,-0.10427438,1.5195273,1.344209,-4.8640146
909,1778416087.167797,1.3970327,-0.08768804,-0.074577525,1.630552,1.2724323,-5.0022225
910,1778416087.177916,1.3655065,-0.20074342,-0.085431814,1.6931658,1.2310462,-5.143638
911,1778416087.1881657,1.3276994,-0.3181893,-0.090919934,1.6982054,1.2008084,-5.2380166
912,1778416087.1982937,1.3054421,-0.44886765,-0.10366459,1.6820174,1.1682798,-5.251303
913,1778416087.2084405,1.3101983,-0.5189937,-0.09012721,1.6630806,1.1093313,-5.1717377
914,1778416087.2185595,1.2766598,-0.5578984,-0.05866196,1.6975945,1.0838276,-5.105917
915,1778416087.2286909,1.2595856,-0.62418276,-0.04311227,1.7467692,1.0716103,-5.035515
916,1778416087.2388098,1.2331817,-0.6592458,-0.04183171,1.7704402,1.073901,-4.9733596
917,1778416087.2489328,1.1641533,-0.6646729,-0.093054205,1.8058704,1.0435106,-4.935791
918,1778416087.2592304,1.0591471,-0.63052464,-0.14445965,1.8648189,0.8730792,-4.87669
919,1778416087.2695124,0.9620684,-0.59930325,-0.1700709,1.9237673,0.65576386,-4.8004847
920,1778416087.279641,0.83120704,-0.57204556,-0.23202574,1.9766072,0.40469822,-4.7132835
921,1778416087.289768,0.73455507,-0.6061329,-0.24653877,1.971873,0.01038471,-4.4629817
922,1778416087.2999918,0.48905292,-0.5342995,-0.2455631,1.8390098,-0.29153544,-4.109749
923,1778416087.310117,0.3436786,-0.57363105,-0.24623388,1.5859588,-0.5758932,-3.7638462
924,1778416087.3202198,0.30538365,-0.73864067,-0.15122834,1.2111931,-0.79198676,-3.2720997
925,1778416087.3303325,0.23397705,-0.8338291,0.017440042,0.592692,-0.7341073,-2.4301746
926,1778416087.3404806,0.124031626,-0.76919127,0.11866546,0.008246681,-0.48579058,-1.7020233
927,1778416087.350631,0.028111396,-0.6817471,0.19147459,-0.61483586,-0.06612616,-0.8081747
928,1778416087.3607574,-0.083602436,-0.6123528,0.24105065,-0.97402465,0.44883323,0.09315695
929,1778416087.3708918,-0.11543357,-0.6961382,-0.015610667,-1.0870347,0.9673051,1.8361082
930,1778416087.380987,-0.022379354,-0.82614577,-0.15433827,-0.98822725,0.7415904,2.8674014
931,1778416087.3910878,0.12427554,-0.9087725,-0.2239155,-0.84681195,0.30940324,3.9212968
932,1778416087.4011867,0.38441268,-0.9851795,-0.3091034,-0.6534731,-0.0917825,4.6896124
933,1778416087.4115462,0.7485803,-0.9851185,-0.38051,-0.32635477,-0.6180429,5.449071
934,1778416087.421644,0.7485803,-0.9851185,-0.38051,-0.0050396384,-1.0453432,5.9261565
935,1778416087.4318283,1.1000032,-0.9357254,-0.40008432,-0.0050396384,-1.0453432,5.9261565
936,1778416087.4419427,1.2853799,-0.9007233,-0.38349798,0.11575896,-1.2341005,6.0996423
937,1778416087.4521909,1.5525296,-0.84084177,-0.30654228,0.15577064,-1.3561208,6.293592
938,1778416087.4622946,1.7282106,-0.6660145,-0.06841862,-0.4222606,-0.795652,6.5167103
939,1778416087.4724994,1.755956,-0.55045897,-0.033721477,-0.816116,-0.2773328,6.5031185
940,1778416087.4826005,1.7735791,-0.4369767,-0.06951625,-0.816116,-0.2773328,6.5031185
941,1778416087.4926877,1.7715058,-0.28501663,-0.14482552,-1.2475395,0.24113905,6.115525
942,1778416087.5028121,1.776811,-0.1515942,-0.2084268,-1.2339478,0.19624045,5.6833377
943,1778416087.5129669,1.776811,-0.1515942,-0.2084268,-1.2339478,0.19624045,5.6833377
944,1778416087.5230699,1.7546755,-0.017257104,-0.29087064,-0.8720101,-0.3462079,5.063462
945,1778416087.533186,1.6663166,0.10518907,-0.2815408,-0.7266242,-0.64858615,4.867069
946,1778416087.5436165,1.6663166,0.10518907,-0.2815408,-0.7266242,-0.64858615,4.867069
947,1778416087.553717,1.5635668,0.24769738,-0.22653762,-0.6062838,-1.1319333,4.198324
948,1778416087.5638232,1.2873923,0.41557303,0.002561125,-0.66538495,-1.0256428,3.7977493
949,1778416087.573933,1.1429325,0.46594182,0.03738023,-0.77213365,-0.7622071,3.3977852
950,1778416087.5840383,1.0704283,0.46880785,-0.026586918,-0.8891144,-0.5891795,3.0077477
951,1778416087.5941598,1.0327432,0.43892804,-0.12890996,-0.94897914,-0.6469063,2.7574458
952,1778416087.6043065,1.0664647,0.36959475,-0.17677861,-0.9450085,-0.9460775,2.5966353
953,1778416087.614419,1.164946,0.33495858,-0.15702136,-0.89812464,-1.268309,2.6201537
954,1778416087.624522,1.3561157,0.38807142,-0.0757971,-0.8516989,-1.6412421,2.7598891
955,1778416087.6346376,1.5625912,0.4899676,0.03225798,-0.8651379,-1.8413006,2.869845
956,1778416087.6449113,1.5625912,0.4899676,0.03225798,-0.8651379,-1.8413006,2.869845
957,1778416087.6550267,2.1091473,0.8268775,0.28696796,-1.0308352,-1.7379116,2.727208
958,1778416087.6652095,2.3270261,1.0345116,0.39240095,-1.1377366,-1.3552046,2.3655756
959,1778416087.6753376,2.4710588,1.232389,0.44417223,-1.2374603,-0.8205447,1.7786869
960,1778416087.6855757,2.5127685,1.3323338,0.45899022,-1.3794864,-0.20005837,1.0407617
961,1778416087.695711,2.464473,1.314345,0.45972195,-1.5318973,0.32284227,0.41538838
962,1778416087.7058234,2.3853831,1.1470791,0.40557244,-1.690875,0.8915578,-0.160963
963,1778416087.7161515,2.3709311,0.99146026,0.32483602,-1.6815593,1.2063061,-0.3943135
964,1778416087.7262707,2.4109333,0.95475084,0.25440508,-1.4920384,1.2389874,-0.49281552
965,1778416087.7364137,2.4642901,0.957068,0.20263378,-1.1679744,1.110553,-0.6565274
966,1778416087.7465158,2.493499,0.95603144,0.19958481,-0.6632469,0.88697636,-1.0019717
967,1778416087.7566714,2.4809985,0.9468236,0.23275748,-0.12629639,0.7295258,-1.4407257
968,1778416087.7667928,2.403067,0.9084677,0.26202747,0.3736968,0.7386888,-1.9034561
969,1778416087.776932,2.2372038,0.8413296,0.2537953,0.7301367,0.88621277,-2.3802364
970,1778416087.7871392,2.0876827,0.7390065,0.23452587,0.90133166,1.0479393,-2.6962066
971,1778416087.797254,1.8874272,0.57588726,0.21629311,0.98272943,1.3067935,-2.9596422
972,1778416087.8073695,1.7045507,0.45209953,0.15598471,1.0083858,1.5635096,-3.0929635
973,1778416087.8175128,1.5743603,0.38185155,0.08781,1.0671816,1.7391334,-3.1349604
974,1778416087.8276377,1.4936237,0.37502187,0.03561183,1.1606439,1.8061758,-3.1711543
975,1778416087.8377535,1.4334372,0.36569205,-0.008841979,1.3092369,1.8295414,-3.2534683
976,1778416087.8480124,1.3941058,0.3325194,-0.059576645,1.5503759,1.7968601,-3.3843462
977,1778416087.8581283,1.3781292,0.30751795,-0.11628727,1.8258762,1.7121025,-3.5537086
978,1778416087.868291,1.3612379,0.28166276,-0.16324124,2.0715969,1.5743525,-3.7789652
979,1778416087.878405,1.3623356,0.2128173,-0.2008044,2.242639,1.4117095,-4.051411
980,1778416087.888528,1.3772755,0.1387276,-0.20964637,2.3186917,1.2822062,-4.2468877
981,1778416087.8986363,1.3867882,0.027562585,-0.20799993,2.345417,1.1227703,-4.4003677
982,1778416087.908757,1.4230099,-0.09287128,-0.21714681,2.3344216,0.93951076,-4.4200683
983,1778416087.91889,1.448865,-0.15519199,-0.18769388,2.3156374,0.7273878,-4.352873
984,1778416087.9292703,1.4491699,-0.14586218,-0.14055698,2.3186917,0.6188065,-4.3542476
985,1778416087.939515,1.4559996,-0.1390325,-0.1367153,2.3357959,0.5716171,-4.4290786
986,1778416087.9496255,1.5092343,-0.1478135,-0.12183637,2.3435845,0.43401974,-4.6644144
987,1778416087.95979,1.49588,-0.13744704,-0.06299148,2.3547328,0.38805214,-4.977788
988,1778416087.9699566,1.4407548,-0.20220692,-0.056039855,2.3860397,0.38163805,-5.361106
989,1778416087.980078,1.4042892,-0.3284948,-0.07268717,2.4204009,0.29092458,-5.631872
990,1778416087.990203,1.3704457,-0.44057447,-0.07183346,2.404213,0.13179417,-5.70426
991,1778416088.0003545,1.3067836,-0.54728806,-0.08555377,2.3431263,-0.036651913,-5.656154
992,1778416088.01063,1.030304,-0.6508306,-0.06104015,2.1962132,-0.27351493,-5.516724
993,1778416088.0207596,1.030304,-0.6508306,-0.06104015,1.5800029,-0.6776023,-5.162422
994,1778416088.030883,0.79650986,-0.69199157,-0.020976834,1.5800029,-0.6776023,-5.162422
995,1778416088.0411768,0.71077317,-0.78108215,0.01975725,1.0833695,-0.8304713,-4.883562
996,1778416088.0513024,0.5318603,-1.0037781,0.19879209,0.3501785,-0.76831573,-4.35608
997,1778416088.0614393,0.3009322,-1.0321333,0.31270117,-0.38560867,-0.41798455,-3.6593883
998,1778416088.071546,-0.14732568,-0.9614585,0.40148684,-1.3811663,0.59513545,-1.8933768
999,1778416088.081641,-0.26416174,-0.9595072,0.33819047,-1.5386169,0.9436341,-0.99067074
