id,timestamp,acc_x,acc_y,acc_z,gyro_x,gyro_y,gyro_z
0,1778415564.5249035,0.012561709,0.6363786,0.3766683,-0.87369,-1.1018482,-0.9265299
1,1778415564.5350432,0.08384635,0.49252874,0.3714241,-1.0728321,-1.3997977,-0.77457714
2,1778415564.5451758,0.08384635,0.49252874,0.3714241,-1.0728321,-1.3997977,-0.77457714
3,1778415564.5553036,0.13793488,0.49277264,0.2783089,-1.372156,-1.8190039,-0.37323865
4,1778415564.5654402,0.1788519,0.5494223,0.34008083,-1.5001323,-2.1536055,-0.36025777
5,1778415564.5755732,0.19659685,0.58424145,0.45703888,-1.6010778,-2.169946,-0.4999932
6,1778415564.5856884,0.2660521,0.5394217,0.5173473,-1.6487253,-2.037083,-0.7415904
7,1778415564.5958018,0.3509961,0.45905116,0.5744238,-1.616044,-1.8877263,-0.82848597
8,1778415564.6059167,0.29361472,0.33800754,0.45764863,-1.5803084,-1.7938058,-0.7162395
9,1778415564.6160612,0.3167258,0.17305888,0.3817296,-1.6522378,-2.186592,-0.38927388
10,1778415564.6261787,0.26586917,0.19336495,0.5272259,-1.6698002,-2.0367775,-0.1797471
11,1778415564.636292,0.2719671,0.2558076,0.5496662,-1.7182112,-1.8580993,-0.13988814
12,1778415564.6463964,0.39575478,0.027562585,0.2830653,-1.706452,-1.6783522,-0.16172658
13,1778415564.6565409,0.5082004,0.1911087,0.45777062,-1.5873333,-2.0069978,0.29550606
14,1778415564.6666718,0.50978583,0.41648772,0.6278415,-1.3136657,-1.9830213,0.59986967
15,1778415564.676793,0.47844255,0.6723563,0.7944976,-1.0473285,-1.4923438,0.6113234
16,1778415564.686917,0.5050295,0.9994486,0.8113888,-0.77686787,-1.001819,0.32421672
17,1778415564.69702,0.6884548,1.2169002,0.661502,-0.64736444,-1.3910929,-0.21471913
18,1778415564.7071161,0.97761804,1.3122107,0.91816336,-0.61269784,-2.0392208,-0.96852684
19,1778415564.7172134,1.1059792,1.2993441,1.1332369,-0.5954409,-2.1022928,-1.6404786
20,1778415564.727338,1.1576285,1.3047103,1.3898371,-0.59666264,-1.9672915,-2.0807598
21,1778415564.73746,1.3514813,1.141713,1.6163138,-0.70325863,-1.8558086,-2.3744333
22,1778415564.747583,1.3514813,1.141713,1.6163138,-0.9966267,-1.7263051,-2.1939225
23,1778415564.757691,1.5374678,1.4303883,1.9981654,-1.3617713,-2.1560488,-2.0648773
24,1778415564.7678287,1.5761285,1.5911294,2.22763,-1.5022703,-2.2977695,-2.3168592
25,1778415564.777971,1.6415592,1.5820435,2.335441,-1.4188873,-2.641992,-2.7550023
26,1778415564.7881107,1.6486328,1.5839338,2.5659423,-1.0633637,-3.0445523,-3.3635767
27,1778415564.7984152,1.7134537,1.4774033,2.6981452,-0.47311515,-3.4110715,-3.8154643
28,1778415564.8085504,1.8305945,1.3684336,2.8496785,0.068264194,-3.8614318,-3.992768
29,1778415564.8187168,1.8638283,1.3764218,2.9545627,0.5581781,-4.2633815,-4.1366267
30,1778415564.8290517,1.9165752,1.4075822,3.22903,0.9068295,-4.6007314,-4.3730316
31,1778415564.8393016,2.0192642,1.4291078,3.551,1.3564262,-4.512767,-4.849812
32,1778415564.8494678,1.9679198,1.4500237,3.5121562,1.806634,-4.13907,-5.161964
33,1778415564.8597176,1.8241308,1.4387425,3.433981,2.188272,-3.9929206,-5.54742
34,1778415564.8700252,1.7726644,1.393069,3.217017,2.5622742,-4.0167446,-5.735872
35,1778415564.8801544,1.7055873,1.0794532,2.573138,3.3423493,-4.87501,-5.830709
36,1778415564.8902779,1.4964287,1.3971547,2.967978,4.4333544,-5.3296466,-6.2473187
37,1778415564.9004068,1.4364862,1.0967103,2.818274,5.322927,-5.8485765,-7.11826
38,1778415564.9105368,1.4526457,0.8862712,2.6482642,5.967695,-6.158591,-7.610923
39,1778415564.9208162,1.4144118,0.6568066,2.701316,6.4977736,-6.478837,-8.040055
40,1778415564.9310448,1.3859345,0.52350616,2.807298,6.625139,-6.372241,-8.226064
41,1778415564.9411786,1.340383,0.28574836,2.8526664,6.316194,-5.750685,-8.297841
42,1778415564.9513364,1.2297668,-0.1325687,2.4917307,5.326134,-4.2003093,-8.263633
43,1778415564.961528,1.2297668,-0.1325687,2.4917307,5.326134,-4.2003093,-8.263633
44,1778415564.9716594,1.1786054,-0.3324584,1.9493212,5.129894,-3.7168095,-8.275697
45,1778415564.9817872,1.1786054,-0.3324584,1.9493212,5.129894,-3.7168095,-8.275697
46,1778415564.9919116,1.1723856,-0.48929682,1.4895991,4.8409543,-3.8683043,-8.3293
47,1778415565.0020213,1.1723856,-0.48929682,1.4895991,4.8409543,-3.8683043,-8.3293
48,1778415565.0121543,1.0750017,-0.561984,1.1873864,4.046066,-4.364327,-7.822893
49,1778415565.0222852,1.0750017,-0.561984,1.1873864,4.046066,-4.364327,-7.822893
50,1778415565.032421,1.0065831,-0.5458855,1.1393958,3.7447567,-4.443434,-7.499593
51,1778415565.0425286,0.96566606,-0.5182619,1.0474391,3.2195654,-4.2342124,-7.2147765
52,1778415565.0527678,0.9969484,-0.65320885,0.8477324,2.5663977,-3.8579195,-6.6301785
53,1778415565.0632331,0.9507263,-0.66028243,0.69424784,2.2020166,-3.5613444,-6.1280475
54,1778415565.0734148,1.0553055,-0.7112,0.13330047,1.3645202,-3.7071884,-4.9906163
55,1778415565.0835645,0.9870698,-0.6596726,0.02426971,1.057255,-3.9660425,-4.7566547
56,1778415565.0936573,1.0325602,-0.7197371,-0.008171208,0.6630942,-4.2557454,-4.6906815
57,1778415565.1037834,1.0648183,-0.7619347,0.11262852,0.19135354,-4.522083,-4.4037275
58,1778415565.113916,1.0620742,-0.78748494,0.24751444,-0.012675454,-4.4183884,-4.1225767
59,1778415565.124028,0.9978631,-0.8773683,0.3927668,-0.031612277,-3.7896552,-3.466813
60,1778415565.1341298,0.88218564,-0.82681656,0.26013714,0.12629639,-3.3127222,-3.120147
61,1778415565.1442575,0.88925916,-0.9340789,-0.009207855,0.41141775,-2.865416,-2.4017694
62,1778415565.1543696,0.83937824,-0.9586535,-0.12372673,0.4894558,-2.459038,-1.511128
63,1778415565.1644886,1.0340238,-0.96389776,0.0015854583,0.0154243475,-1.6082555,-0.5164866
64,1778415565.174606,1.2361697,-0.90456504,0.039880376,-1.0596985,-0.022143865,0.33948836
65,1778415565.1847463,1.1925696,-0.73187196,-0.16092403,-2.2522602,1.3364204,0.5002986
66,1778415565.1948488,0.8873079,-0.46020976,-0.19403571,-3.7297904,2.6143506,0.11804971
67,1778415565.2049518,0.3109328,-0.49197996,-0.5029562,-4.519639,3.5337026,-0.9224065
68,1778415565.2150807,-0.62753665,-0.5095419,-0.8938936,-3.9901717,3.2734742,-2.286316
69,1778415565.2252507,-0.62753665,-0.5095419,-0.8938936,-3.9901717,3.2734742,-2.286316
70,1778415565.2353563,-2.2312887,-1.2039117,-1.1862278,-1.2835805,0.96669424,-4.0836344
71,1778415565.2456534,-2.959258,-2.3017807,-1.0786605,0.03604105,-0.93660915,-4.076304
72,1778415565.2559135,-3.6133208,-2.8204694,-0.6026571,0.6113234,-2.3275492,-2.9842293
73,1778415565.2660263,-4.053224,-2.9949307,0.22501312,0.29886582,-2.1131356,-1.3545936
74,1778415565.2761905,-4.4337955,-2.8432758,0.62393886,-0.6169739,-0.66874474,0.22036964
75,1778415565.286306,-4.6469784,-2.7447944,0.5497272,-1.2082914,0.4830417,1.449125
76,1778415565.2966657,-4.7418013,-2.5215497,0.23787974,-1.2032518,1.1409435,2.9011517
77,1778415565.3068113,-4.512946,-2.239521,-0.0020732917,-0.6206391,0.95356065,4.1357102
78,1778415565.3170655,-4.1024346,-2.0180445,0.019879209,-0.14095716,0.6617198,4.840191
79,1778415565.327182,-3.726498,-1.7703472,-0.04530752,0.22922719,0.32696563,5.42204
80,1778415565.3372958,-3.0993881,-1.7488216,-0.2637349,0.45830166,-0.14095716,5.805663
81,1778415565.347414,-2.3748336,-1.7029043,-0.41557303,0.9460775,-1.094976,6.254649
82,1778415565.3575108,-1.6930256,-1.7338207,-0.24184339,1.6571246,-1.8597792,6.596276
83,1778415565.3676372,-1.0707942,-1.8017515,-0.33910516,2.5795312,-2.4063509,6.839553
84,1778415565.3777452,-0.4750887,-1.9229782,-0.5332628,3.6441166,-3.0066788,7.0249505
85,1778415565.3880312,0.1800105,-2.031521,-0.9339569,4.701219,-3.8084393,7.1820955
86,1778415565.398137,0.81919414,-2.177993,-1.288124,5.6779923,-4.6422706,7.3312993
87,1778415565.4084709,1.4611218,-2.0939636,-1.6786956,6.9252267,-5.5655932,7.5328846
88,1778415565.4185874,2.0174348,-2.1329901,-1.7199785,7.565108,-6.3216915,7.55228
89,1778415565.428821,2.2564123,-2.1205506,-1.5146616,7.5800743,-6.3278003,7.5961094
90,1778415565.4391394,2.2564123,-2.1205506,-1.5146616,7.5800743,-6.3278003,7.5961094
91,1778415565.4492671,2.8583376,-1.9997507,-1.2934291,6.086814,-3.1848986,8.183304
92,1778415565.4594176,2.9572458,-1.791568,-1.7382113,4.3133197,-1.4926492,8.409171
93,1778415565.4696364,2.8996813,-1.5685061,-1.8434002,2.0496056,-0.5841399,8.22637
94,1778415565.47975,2.8000414,-1.5094783,-1.630339,-0.13988814,-0.01160644,7.899251
95,1778415565.489907,2.5899682,-1.6289974,-1.2348281,-1.6792686,0.39003745,7.669413
96,1778415565.500131,2.28928,-1.8005928,-0.88877136,-3.161533,0.9298896,7.4892077
97,1778415565.5102928,2.0362773,-2.0532296,-0.80309564,-4.01705,1.0383182,7.5200567
98,1778415565.5204265,1.9194412,-2.2879994,-0.7730329,-4.2418485,0.7151705,7.666206
99,1778415565.5305614,1.8898054,-2.4158728,-0.87627065,-3.9600866,-0.15958855,7.9667516
100,1778415565.5406978,1.9943846,-2.4496553,-0.9031625,-3.4532213,-1.2176071,8.203615
101,1778415565.5508003,2.5007555,-2.248241,-0.63095146,-1.853976,-3.5576792,8.408102
102,1778415565.5609741,2.5007555,-2.248241,-0.63095146,-1.853976,-3.5576792,8.408102
103,1778415565.5712085,2.7977853,-2.025301,-0.4189269,-1.0966558,-4.1250205,8.289594
104,1778415565.5813482,2.7977853,-2.025301,-0.4189269,-0.3324634,-4.397008,8.077166
105,1778415565.5914476,2.9276707,-2.0034096,-0.386425,0.79137594,-4.5382705,7.7268343
106,1778415565.6015475,2.9276707,-2.0034096,-0.386425,0.79137594,-4.5382705,7.7268343
107,1778415565.6117353,2.980174,-2.0142028,-0.40264544,1.2524265,-4.495052,7.700109
108,1778415565.6218498,3.0309086,-1.9499308,-0.42508578,1.511128,-4.512156,7.7563086
109,1778415565.6320002,3.1237187,-1.8474858,-0.33995885,1.6604844,-4.4730606,7.8551164
110,1778415565.6421108,3.2365303,-1.6523526,-0.19659685,1.651627,-4.1039453,7.856949
111,1778415565.6522918,3.2798867,-1.3851418,-0.122507155,1.3171781,-3.499189,7.6568904
112,1778415565.662398,3.3925152,-0.9077969,0.228306,0.36758816,-2.401464,7.1614785
113,1778415565.6725245,3.3925152,-0.9077969,0.228306,0.36758816,-2.401464,7.1614785
114,1778415565.682649,3.4671538,-0.120189935,0.73504287,-0.5839872,-0.4072944,7.1506357
115,1778415565.6927547,3.7002158,0.018964522,0.7021751,-1.1267409,0.70509124,6.8065658
116,1778415565.7028575,3.9673655,0.21470766,0.4485018,-1.2657127,1.1206323,6.494108
117,1778415565.7130218,4.344278,0.3881324,0.32251883,-1.2657127,1.1206323,6.494108
118,1778415565.7231433,5.122555,0.79827833,0.49466303,-0.30192015,-0.046120327,6.2735863
119,1778415565.7332668,5.122555,0.79827833,0.49466303,-0.30192015,-0.046120327,6.2735863
120,1778415565.743366,6.6143494,2.0312161,0.9729836,1.3712398,0.57757306,5.085453
121,1778415565.7535071,7.062058,2.400445,0.5230183,2.0308216,1.1847731,2.9996538
122,1778415565.7636366,7.165601,2.2223856,0.0037197291,2.6175575,0.9240864,0.9231701
123,1778415565.7737417,6.8010674,1.7824819,-0.52204263,4.002389,-0.76342887,-2.1508565
124,1778415565.7838683,6.494891,1.3247114,-0.45734373,5.0054297,-2.0984747,-3.8159225
125,1778415565.794,6.0898066,0.63826895,-0.19629194,5.771913,-2.8593075,-5.3381987
126,1778415565.8041706,5.7406397,0.063540295,-0.09811548,5.740148,-2.7183504,-6.169739
127,1778415565.8143022,5.3501296,-0.68382037,-0.084883004,4.9808426,-1.9847012,-6.7164636
128,1778415565.824408,5.127128,-1.0813435,-0.0714066,4.2282567,-1.4161384,-6.7363167
129,1778415565.8345497,5.127128,-1.0813435,-0.0714066,4.2282567,-1.4161384,-6.7363167
130,1778415565.8446705,4.7725344,-1.422583,0.020489,2.379931,-0.03573562,-6.167601
131,1778415565.85479,4.1546936,-1.1068939,0.19312102,-0.87964594,3.0469959,-5.0549097
132,1778415565.8649209,3.9235823,-0.8704776,0.08994427,-1.9553796,4.4629817,-4.776508
133,1778415565.8750677,3.7118628,-0.7189444,-0.0060369377,-2.350915,5.274363,-4.644103
134,1778415565.885173,3.368428,-0.43770844,-0.16647314,-2.329382,5.6807413,-4.6755624
135,1778415565.8953,3.114755,-0.18415709,-0.21861032,-1.8145752,5.446322,-4.9722905
136,1778415565.9054716,2.8285797,0.018842563,-0.2148906,-1.1322387,5.0384164,-5.403103
137,1778415565.9156013,2.587895,0.09470064,-0.1419595,0.08460484,4.2090144,-6.115219
138,1778415565.92571,2.4897184,0.113421254,-0.09939604,0.9111055,3.6651914,-6.61002
139,1778415565.9360669,2.4897184,0.113421254,-0.09939604,0.9111055,3.6651914,-6.61002
140,1778415565.9461803,2.4291053,-0.049759,-0.060186442,2.191479,2.5506678,-7.840608
141,1778415565.9563165,2.4291053,-0.049759,-0.060186442,2.191479,2.5506678,-7.840608
142,1778415565.9664183,2.4622169,-0.4100849,-0.110189356,3.0457742,1.1644619,-9.320735
143,1778415565.9766471,2.520391,-0.617719,-0.081468165,3.4891095,0.45631635,-9.944122
144,1778415565.9868076,2.678205,-0.81193763,-0.11689706,3.7195585,-0.055283304,-10.374172
145,1778415565.9970288,2.860167,-0.99188715,-0.11451888,3.7215438,-0.6693556,-10.908526
146,1778415566.0073485,2.9604776,-1.1780565,-0.06079623,3.445891,-1.0575604,-11.322388
147,1778415566.017564,2.9681609,-1.3051981,-0.025489293,3.1584787,-1.1826351,-11.471438
148,1778415566.0277045,2.9012668,-1.3870322,-0.0140252095,2.7475193,-1.1279627,-11.452807
149,1778415566.0378199,2.8606548,-1.4391693,-0.029635875,2.43216,-1.0592403,-11.401494
150,1778415566.0480475,2.7410138,-1.530882,-0.11762882,1.5906931,-0.82787514,-11.12966
151,1778415566.058149,2.6328366,-1.5918611,-0.1835473,0.82253003,-0.67164636,-10.762072
152,1778415566.0682814,2.5536246,-1.6393028,-0.30117613,0.21991149,-0.6053675,-10.278724
153,1778415566.0783975,2.4901452,-1.5326505,-0.3647774,-0.03359759,-0.7076874,-9.854173
154,1778415566.0885496,2.4763641,-1.4370351,-0.33319017,-0.23548855,-0.8402451,-9.351889
155,1778415566.0986652,2.4839864,-1.3414807,-0.31825027,-0.5290093,-0.77213365,-8.894961
156,1778415566.1088052,2.4489233,-1.2597686,-0.4290494,-0.8339838,-0.7113526,-8.614117
157,1778415566.118941,2.4445329,-1.1689097,-0.55893505,-1.1720977,-0.8891144,-8.350375
158,1778415566.1292086,2.4663024,-1.0851853,-0.6218046,-1.3596333,-1.2980887,-8.192467
159,1778415566.139359,2.5591128,-1.0437804,-0.5936932,-1.4422529,-1.5485435,-8.167421
160,1778415566.1494963,2.6891203,-1.1289684,-0.49344343,-1.5453364,-1.7227927,-8.066323
161,1778415566.1598172,2.6338122,-1.1376274,-0.44167212,-1.4532484,-1.5954273,-7.909178
162,1778415566.169929,2.455509,-1.1347003,-0.5236891,-1.2426527,-1.4602734,-7.802276
163,1778415566.180113,2.1471984,-1.2142782,-0.72101766,-1.0769554,-1.5816828,-7.772344
164,1778415566.1902282,1.68894,-1.2850751,-0.7052241,-0.9825767,-1.882534,-7.7466874
165,1778415566.20038,1.1177481,-1.6002153,-0.5742408,-1.1933253,-1.8657352,-7.8499236
166,1778415566.2105072,0.5643012,-2.013715,-0.63485414,-1.5019649,-1.719433,-7.8612247
167,1778415566.220644,-0.2306232,-2.7534535,-0.608938,-1.9213239,-1.8147279,-7.6491017
168,1778415566.2310143,-0.75297076,-3.4200168,-0.22647662,-2.170557,-1.8793269,-6.688669
169,1778415566.24115,-1.3337973,-3.942608,0.26336902,-2.2249238,-1.5580118,-5.8875194
170,1778415566.2512712,-2.1151233,-4.3160443,0.41349974,-2.2551618,-0.91354895,-4.907386
171,1778415566.2613916,-2.7067432,-4.9792542,0.50624907,-1.7435621,-0.8385653,-3.4037411
172,1778415566.2714999,-3.0025532,-5.3550076,0.92846876,-1.0609202,-0.81016004,-0.66248333
173,1778415566.2816615,-2.9412084,-5.300187,1.0728675,-1.0004445,-0.62781674,0.674548
174,1778415566.291792,-2.8451052,-4.920775,1.2132416,-0.8445212,-0.38713586,1.8099937
175,1778415566.3018944,-2.7788815,-4.5756326,1.2449507,-0.4251622,-0.37232238,2.506991
176,1778415566.3119795,-2.6032007,-4.044321,1.3452004,0.5401576,-0.3724751,3.3206635
177,1778415566.32208,-2.4391668,-3.767049,1.3745314,1.4894422,-0.29550606,3.951229
178,1778415566.332168,-2.01713,-3.3353775,1.1947647,2.486527,-0.16325374,4.59111
179,1778415566.3425863,-2.01713,-3.3353775,1.1947647,2.486527,-0.16325374,4.59111
180,1778415566.352708,-1.3678846,-2.9787104,0.8798074,3.6407568,0.018936822,5.5206947
181,1778415566.362812,0.26538134,-2.1144526,0.08872469,4.8895183,0.71959925,7.476685
182,1778415566.3731086,0.26538134,-2.1144526,0.08872469,4.8895183,0.71959925,7.476685
183,1778415566.3832302,1.8103495,-1.5343578,-0.5052124,4.9130363,1.5036448,8.403826
184,1778415566.393334,2.3669064,-1.4089847,-0.7512633,4.67541,1.9753854,8.737358
185,1778415566.4034681,2.7179024,-1.3232479,-0.86498946,4.405102,2.3183863,9.055008
186,1778415566.4135728,3.0473118,-1.1676291,-0.936762,3.9645154,2.8950431,9.545991
187,1778415566.4237561,3.2952533,-0.9732885,-1.1324441,3.5193474,3.3414328,9.894948
188,1778415566.4338698,3.5039241,-0.64467174,-1.5117345,2.7759244,3.275612,10.07103
189,1778415566.4440153,3.5686839,-0.38916904,-1.7061361,2.3484714,2.7881417,9.941374
190,1778415566.4544973,3.5686839,-0.38916904,-1.7061361,2.3484714,2.7881417,9.941374
191,1778415566.4647007,3.3736117,-0.23495273,-1.1673242,0.89751375,0.67057735,8.862586
192,1778415566.474803,3.1774414,-0.4025235,-0.6991262,0.31047225,0.45540005,8.519432
193,1778415566.4850695,2.988223,-0.60857207,-0.46368557,-0.20448714,0.6559166,8.44903
194,1778415566.4952037,2.8404708,-0.77699655,-0.4124631,-0.67256266,0.86834496,8.589834
195,1778415566.5053334,2.730647,-0.84126866,-0.41020685,-1.0503827,0.9224065,8.740565
196,1778415566.5154688,2.6235676,-0.8727948,-0.37410718,-1.5726726,0.8022188,8.870375
197,1778415566.5255656,2.5149028,-0.922188,-0.25568563,-2.1610885,0.6221663,8.971473
198,1778415566.535915,2.4514234,-0.98969185,-0.1621436,-2.5175283,0.5335908,9.036072
199,1778415566.54602,2.3774557,-1.0607326,-0.110860124,-3.0859385,0.33292156,9.0916605
200,1778415566.5561287,2.3083055,-1.1731782,-0.055917896,-3.0859385,0.33292156,9.0916605
201,1778415566.5662627,2.2292764,-1.3041614,-0.023720896,-3.828598,-0.41813725,9.011179
202,1778415566.5764906,2.1553695,-1.4170339,0.059942525,-3.8487566,-0.78694713,9.037751
203,1778415566.5866091,2.040302,-1.4323397,0.14513041,-3.6796994,-1.2076806,9.08937
204,1778415566.5968509,2.0590227,-1.4216074,0.17757133,-3.4289393,-1.5080736,9.106015
205,1778415566.6069727,2.07878,-1.308674,0.09171267,-3.1262555,-1.7919732,8.976512
206,1778415566.6170952,2.1415274,-1.2222664,-0.05256404,-2.6009114,-2.460718,8.51989
207,1778415566.627216,2.2174466,-1.176776,-0.18641332,-2.25394,-2.8776336,8.2845545
208,1778415566.6373472,2.4681928,-1.1043327,-0.44026962,-1.5231925,-3.9781072,7.8731365
209,1778415566.64745,2.7740035,-0.9338349,-0.37624148,-0.5670357,-5.299256,7.593666
210,1778415566.6577828,2.7740035,-0.9338349,-0.37624148,-0.5670357,-5.299256,7.593666
211,1778415566.6679506,3.8371751,-0.532775,0.022562291,1.2968669,-6.0463443,7.604509
212,1778415566.678064,4.692225,-0.2367821,0.19604802,1.5358679,-5.526498,7.9001675
213,1778415566.6881938,5.3061023,0.31879908,0.38794947,0.88025683,-4.2180247,7.8120503
214,1778415566.6983051,5.6793556,0.6389397,0.50380987,-0.2828306,-2.8163943,7.2531085
215,1778415566.7084146,5.889978,0.91627294,0.5874123,-1.513266,-1.486846,6.5564165
216,1778415566.7185314,5.938944,1.3480664,0.8205357,-2.5421157,0.01282817,5.665928
217,1778415566.7286623,5.9287605,1.6002764,1.1712879,-2.4711027,0.7287622,5.063004
218,1778415566.7387652,5.9869957,1.7027822,1.261415,-1.4089607,1.236544,4.233296
219,1778415566.7490792,6.3296986,1.9598705,1.2653787,0.50411654,1.1559098,3.6830592
220,1778415566.7591949,6.694476,2.388737,1.4005086,1.8040378,1.2728904,2.9530754
221,1778415566.7693284,6.63307,2.5363674,1.0837218,3.0847168,1.840537,0.8892671
222,1778415566.7794454,6.4709263,2.309342,0.57296026,3.8078284,1.5619824,-1.6194037
223,1778415566.7895508,6.235974,1.9362105,0.3547768,4.1065416,1.0134255,-3.5772269
224,1778415566.7996945,5.6647205,1.1464694,0.3105669,4.185496,0.25244007,-5.6726475
225,1778415566.809804,5.1870713,0.40002334,0.51484716,4.0932555,-0.29260445,-6.8164926
226,1778415566.820051,4.7980847,-0.15781409,0.72101766,3.7340665,-0.28710666,-7.082066
227,1778415566.8303583,4.586914,-0.40709692,0.80163217,3.1861205,0.12370021,-6.92431
228,1778415566.8405676,4.471175,-0.49039447,0.7836433,2.3840544,0.7987063,-6.6094093
229,1778415566.8506835,4.282506,-0.40691397,0.7473607,1.0774136,1.9650007,-6.2164702
230,1778415566.8608568,4.0410895,-0.19397473,0.63851285,-0.24663684,3.2893567,-5.9479947
231,1778415566.8709905,3.735279,0.007866313,0.5207011,-1.1679744,4.4173193,-5.9469256
232,1778415566.8812232,3.395808,0.043417167,0.3787416,-1.4686728,5.1219525,-6.2291455
233,1778415566.8913872,2.7945533,-0.17769329,0.2315379,-0.4569272,4.959462,-6.856199
234,1778415566.9015057,2.7945533,-0.17769329,0.2315379,-0.4569272,4.959462,-6.856199
235,1778415566.911607,2.3855052,-0.52643317,0.4311837,1.7072157,3.580892,-7.49776
236,1778415566.9218864,2.280011,-0.6127797,0.60723054,1.7072157,3.580892,-7.49776
237,1778415566.9320364,2.280011,-0.6127797,0.60723054,2.4711027,3.2691982,-7.721337
238,1778415566.9422896,2.266047,-0.72083473,0.6794299,3.079219,3.1934507,-7.8877974
239,1778415566.9524174,2.288609,-0.8666359,0.6734539,3.6289978,3.2711835,-8.0180645
240,1778415566.9625318,2.3658087,-0.983533,0.48313794,3.9510765,3.2308662,-8.061588
241,1778415566.9726846,2.617043,-1.1109794,0.21934207,4.2493315,2.579073,-8.421694
242,1778415566.982824,2.6877177,-1.1978748,0.16269243,4.318512,2.2033908,-8.68345
243,1778415566.9929457,2.8097372,-1.2984294,0.14336202,4.3698244,1.7447839,-8.995449
244,1778415567.0030732,2.8097372,-1.2984294,0.14336202,4.3698244,1.7447839,-8.995449
245,1778415567.0133102,2.883705,-1.3949594,0.16311927,4.22734,1.4234687,-9.22941
246,1778415567.0234385,2.976942,-1.5442364,0.1525089,3.309057,1.2993103,-9.263313
247,1778415567.033699,3.0172493,-1.5574689,0.13055639,2.52211,1.3591752,-9.141446
248,1778415567.0438263,2.985418,-1.5336261,0.10134738,1.8881844,1.4483615,-9.032253
249,1778415567.053927,2.9043767,-1.448804,0.045673396,1.2819008,1.4419475,-8.869458
250,1778415567.0640697,2.9043767,-1.448804,0.045673396,1.2819008,1.4419475,-8.869458
251,1778415567.0741806,2.7771742,-1.3188574,-0.093785964,0.8503244,1.0331259,-8.616101
252,1778415567.0843577,2.7405868,-1.3146499,-0.1870231,1.0859656,0.42164972,-8.580214
253,1778415567.0944734,2.686742,-1.1779956,-0.37593657,1.4344643,-0.30283645,-8.61656
254,1778415567.1046028,2.5947855,-1.0609765,-0.38892514,1.8634444,-1.4231633,-8.857393
255,1778415567.114736,2.4300199,-1.0079247,-0.2397701,1.9929478,-2.1439843,-9.071502
256,1778415567.1248384,2.2233005,-1.0236572,-0.15671647,1.8289305,-2.2855523,-9.136101
257,1778415567.1350105,2.046034,-1.0806118,-0.18976717,1.6163495,-2.186592,-9.09838
258,1778415567.1451476,1.6324123,-1.3852028,-0.5789362,1.6186402,-2.197435,-8.861058
259,1778415567.155273,1.6324123,-1.3852028,-0.5789362,1.6186402,-2.197435,-8.861058
260,1778415567.165396,0.5699723,-2.0758529,-1.2639762,2.0105102,-4.524526,-7.7266817
261,1778415567.1755004,0.021647604,-2.2961707,-0.7313232,1.6646078,-5.2532883,-6.7088275
262,1778415567.1856174,-0.43545225,-2.4444718,-0.21842737,1.0207558,-4.869512,-5.573687
263,1778415567.1958542,-0.90572363,-2.7299154,0.17903483,-0.3115413,-3.4048102,-4.0323215
264,1778415567.2060149,-1.3359926,-2.8875465,0.16799761,-2.1890357,-1.7127135,-2.6859746
265,1778415567.2161162,-1.7458946,-2.8578498,-0.015000875,-3.4967453,-0.9443977,-2.1591032
266,1778415567.2262206,-2.0240204,-2.9278538,-0.050063897,-4.0593524,-0.88224214,-1.7973182
267,1778415567.2363427,-2.312452,-2.9373665,-0.027501604,-3.7297904,-1.3397802,-1.4575244
268,1778415567.2464497,-2.5489292,-3.0134685,0.34355664,-2.2009475,-2.516612,-0.84314674
269,1778415567.2565765,-2.6576552,-3.1048763,0.91511434,-1.515404,-2.6710083,-0.3755294
270,1778415567.2667897,-2.7477822,-3.2565315,1.3308094,-1.3387111,-2.2351558,0.182496
271,1778415567.2770457,-2.730647,-3.328914,1.4702687,-1.4840971,-1.6432275,0.6937902
272,1778415567.287182,-2.8040051,-3.1506717,1.6163747,-1.6555976,-0.907593,1.3096951
273,1778415567.2973032,-2.8913274,-2.9317565,1.6075938,-1.5034921,-0.40286562,1.6820174
274,1778415567.3074186,-2.9043157,-2.857362,1.5260037,-0.79901177,-0.3222314,1.9625573
275,1778415567.3175182,-2.6968646,-2.9498062,1.4338032,0.09040806,-0.51144695,2.335185
276,1778415567.32775,-2.6968646,-2.9498062,1.4338032,0.09040806,-0.51144695,2.335185
277,1778415567.3378751,-2.6968646,-2.9498062,1.4338032,0.09040806,-0.51144695,2.335185
278,1778415567.3480158,-2.6968646,-2.9498062,1.4338032,0.09040806,-0.51144695,2.335185
279,1778415567.3581376,-0.91407776,-2.95005,0.78650934,3.6089919,0.84757555,5.010775
280,1778415567.3682675,-0.23196477,-2.8704114,-0.09695688,4.501924,1.1624765,5.576131
281,1778415567.378388,0.24794129,-2.8407145,-0.6788201,5.371796,1.1591167,6.064212
282,1778415567.3885148,0.9258467,-2.8554103,-1.2158636,6.312987,1.0202976,6.740898
283,1778415567.3986306,1.4125215,-2.8179693,-1.5423461,6.760904,1.0361801,7.249138
284,1778415567.4087613,1.922856,-2.7325375,-2.0151784,6.907206,1.1586586,7.9869103
285,1778415567.4188967,2.370687,-2.6540573,-2.3369045,6.566496,1.249983,8.920313
286,1778415567.4290302,2.9904184,-2.1141477,-2.6795466,5.3333116,1.1775955,10.224663
287,1778415567.439161,2.9904184,-2.1141477,-2.6795466,5.3333116,1.1775955,10.224663
288,1778415567.449439,2.9904184,-2.1141477,-2.6795466,5.3333116,1.1775955,10.224663
289,1778415567.4596097,3.708265,-1.548566,-2.2965364,0.80481493,0.808022,11.040473
290,1778415567.4697213,4.039992,-1.1138455,-1.425754,-0.4622723,0.8257371,10.731375
291,1778415567.4800186,3.9101062,-1.0845754,-1.220681,-1.0196868,0.7079928,10.369743
292,1778415567.4903312,3.655213,-1.1755564,-1.0021926,-1.4822645,0.3100141,9.830502
293,1778415567.5006535,3.3802583,-1.340627,-0.7671789,-1.6885842,-0.18234327,9.376781
294,1778415567.5108073,3.1265237,-1.4403279,-0.51411533,-1.7817413,-0.68371093,9.0967
295,1778415567.5210836,2.9705393,-1.5694208,-0.28465074,-1.8791742,-0.9436341,8.957881
296,1778415567.5312665,2.7880285,-1.7253445,-0.08646846,-2.010663,-1.08902,8.881828
297,1778415567.5414567,2.7880285,-1.7253445,-0.08646846,-2.010663,-1.08902,8.881828
298,1778415567.551579,2.7880285,-1.7253445,-0.08646846,-2.010663,-1.08902,8.881828
299,1778415567.5616918,2.5619788,-2.010544,0.042075627,-2.012801,-1.3855951,8.954826
300,1778415567.5719645,2.6108842,-2.0920732,0.015610667,-1.0370965,-2.1881194,9.2204
301,1778415567.582104,2.842178,-2.0668888,-0.22135438,0.0125227375,-2.9271135,9.333715
302,1778415567.5922225,2.9809055,-2.0116417,-0.35544756,0.61850107,-3.450167,9.21307
303,1778415567.6023216,3.1489642,-1.9657245,-0.4877114,1.3009902,-3.9304597,9.08433
304,1778415567.6124203,3.4426396,-2.0485342,-0.57881427,1.7635679,-4.2404737,9.184512
305,1778415567.622552,3.8557737,-1.9693832,-0.56478906,2.0314324,-4.399757,9.624487
306,1778415567.6326861,3.8557737,-1.9693832,-0.56478906,2.0314324,-4.399757,9.624487
307,1778415567.6429167,3.8557737,-1.9693832,-0.56478906,2.0314324,-4.399757,9.624487
308,1778415567.6530461,3.8557737,-1.9693832,-0.56478906,2.0314324,-4.399757,9.624487
309,1778415567.663179,4.894737,-0.26721072,-0.10464026,0.44944412,-2.6145031,10.011318
310,1778415567.6732912,5.174936,0.8736486,0.16080207,-0.8689558,-0.999681,9.329439
311,1778415567.6834838,5.1238966,1.1521404,0.24836816,-2.5144742,0.6273586,7.959574
312,1778415567.6935809,5.008463,1.5494196,0.47112507,-2.5450172,0.8863655,6.198297
313,1778415567.7037086,5.246038,1.8069957,0.67497844,-1.2748758,0.40759984,5.757863
314,1778415567.7138195,5.9627256,2.0760357,0.6905891,0.8268061,0.027030786,5.3189564
315,1778415567.7239485,6.7180753,2.543746,0.39843786,2.304031,-0.07544186,4.3692136
316,1778415567.7340734,6.7180753,2.543746,0.39843786,2.304031,-0.07544186,4.3692136
317,1778415567.7441895,6.7180753,2.543746,0.39843786,2.304031,-0.07544186,4.3692136
318,1778415567.7543104,6.7180753,2.543746,0.39843786,2.304031,-0.07544186,4.3692136
319,1778415567.7645187,7.1147447,2.6104572,0.008354146,2.1488712,-0.31658092,-1.8025106
320,1778415567.774625,6.097185,1.0054245,0.11915329,2.43048,-0.031154128,-5.72396
321,1778415567.7848647,5.690942,0.051466417,-0.07890704,2.521041,0.013897184,-6.759835
322,1778415567.794985,5.511602,-0.848769,-0.1261659,2.2950208,-0.1695151,-7.1762924
323,1778415567.8051603,5.361776,-1.3176988,0.0629305,1.7435621,-0.11224649,-7.048316
324,1778415567.8153803,5.181766,-1.5523467,0.38801044,0.6081163,0.66599584,-6.5354943
325,1778415567.8254747,5.0047436,-1.4333154,0.5966202,-0.42562035,1.859932,-6.037639
326,1778415567.8356023,4.826928,-1.1792761,0.5991813,-1.3646729,3.6308303,-5.5055757
327,1778415567.8457232,4.826928,-1.1792761,0.5991813,-1.3646729,3.6308303,-5.5055757
328,1778415567.8561237,4.826928,-1.1792761,0.5991813,-1.3646729,3.6308303,-5.5055757
329,1778415567.866589,4.3359847,-0.6168653,0.096591,-1.5007432,5.621793,-5.2273264
330,1778415567.876915,3.740645,-0.2499536,-0.44575772,0.05024367,4.408004,-6.405686
331,1778415567.8870227,3.4822764,-0.2177566,-0.28739482,1.1004738,3.0764701,-7.352985
332,1778415567.8971434,3.246226,-0.24727054,-0.036282603,1.9909625,2.176513,-8.265007
333,1778415567.9072554,3.053532,-0.32056746,0.049027253,2.4930937,1.764637,-8.88977
334,1778415567.917392,2.8372388,-0.48905292,0.04402696,2.82403,1.4720325,-9.475894
335,1778415567.9275231,2.6136281,-0.67424667,-0.041099958,2.8480065,1.2643384,-9.865474
336,1778415567.9376342,2.4744737,-0.82486516,-0.10823802,2.6621506,1.1386528,-10.057133
337,1778415567.947767,2.4744737,-0.82486516,-0.10823802,2.6621506,1.1386528,-10.057133
338,1778415567.958147,2.4744737,-0.82486516,-0.10823802,2.6621506,1.1386528,-10.057133
339,1778415567.9683936,2.4744737,-0.82486516,-0.10823802,2.6621506,1.1386528,-10.057133
340,1778415567.978512,2.5197203,-1.4893552,-0.13702019,0.7890852,0.9051496,-10.174572
341,1778415567.9886267,2.5739915,-1.653816,-0.2174517,-0.17867808,1.0395399,-9.987188
342,1778415567.998741,2.5988102,-1.7811406,-0.26836932,-0.10888673,0.782213,-9.886702
343,1778415568.0088732,2.6418004,-1.8865125,-0.29465136,0.23258694,0.2666427,-9.6461735
344,1778415568.0192215,2.6818027,-1.7606515,-0.24348982,0.5364924,-0.3210097,-9.362579
345,1778415568.0294657,2.7171097,-1.5846657,-0.19312102,0.59712076,-0.70005155,-9.257205
346,1778415568.0396414,2.7479043,-1.4661222,-0.13311753,0.43203443,-0.96684694,-9.2413225
347,1778415568.0497708,2.7479043,-1.4661222,-0.13311753,0.43203443,-0.96684694,-9.2413225
348,1778415568.0599895,2.7810159,-1.5460049,-0.10262794,-0.28939742,-0.8217665,-8.923061
349,1778415568.0701098,2.800712,-1.6937574,-0.36935082,-0.40866885,-0.6630942,-8.685588
350,1778415568.0802383,2.707719,-1.7136366,-0.6062549,-0.301462,-0.89751375,-8.270963
351,1778415568.0904405,2.5302696,-1.5757017,-0.6716246,-0.16539176,-1.2515101,-7.910705
352,1778415568.100715,2.3461735,-1.498502,-0.6692464,-0.19440787,-1.4092661,-7.57534
353,1778415568.1109643,2.0822556,-1.446121,-0.6488183,-0.46196684,-1.3871223,-7.291135
354,1778415568.1211052,1.82968,-1.4659392,-0.6589409,-0.979217,-1.151481,-6.9846334
355,1778415568.1312633,1.551737,-1.5350895,-0.73485994,-1.3930782,-0.95371336,-6.7514353
356,1778415568.1414633,1.2451947,-1.6805859,-0.76150787,-1.7308867,-0.8903361,-6.4849453
357,1778415568.1515968,0.95157987,-1.8653526,-0.63912266,-2.004707,-0.77411896,-6.032905
358,1778415568.1617053,0.52557945,-2.0526807,-0.38685185,-2.3330472,-0.25473082,-5.3290358
359,1778415568.1719515,0.048783336,-2.244765,-0.3386783,-2.4694228,0.61483586,-4.3070583
360,1778415568.1821387,-0.646989,-2.242509,-0.468381,-2.3800838,1.5361733,-2.817616
361,1778415568.1922429,-0.646989,-2.242509,-0.468381,-2.3800838,1.5361733,-2.817616
362,1778415568.2023277,-0.9947531,-2.192445,-0.4499043,-1.7632625,1.2869403,-2.6198483
363,1778415568.2124426,-1.3550181,-2.192384,-0.5453367,-1.7632625,1.2869403,-2.6198483
364,1778415568.2225423,-1.3550181,-2.192384,-0.5453367,-1.7632625,1.2869403,-2.6198483
365,1778415568.2326357,-1.3550181,-2.192384,-0.5453367,-1.7632625,1.2869403,-2.6198483
366,1778415568.242732,-2.253302,-2.6952794,-0.08854175,0.08002335,-0.8529206,-1.7849482
367,1778415568.2528422,-2.564235,-2.5952733,0.32453114,-0.18524489,-0.5749769,-0.81153446
368,1778415568.2629561,-2.564235,-2.5952733,0.32453114,-0.18524489,-0.5749769,-0.81153446
369,1778415568.2730517,-2.684669,-2.567406,0.57387495,-0.5878051,-0.04550946,-0.257327
370,1778415568.283151,-2.9356592,-2.4504478,0.44569677,-0.875828,0.40851614,0.15851954
371,1778415568.2932398,-3.3010464,-2.4320931,0.4688688,-0.345597,-0.18509217,0.8753699
372,1778415568.3033335,-3.3797703,-2.4600215,0.6084501,0.23945917,-0.55848354,1.2519683
373,1778415568.313454,-3.3797703,-2.4600215,0.6084501,0.23945917,-0.55848354,1.2519683
374,1778415568.3235664,-3.0464582,-2.5474658,0.90102816,1.7154623,-0.9628763,2.6717718
375,1778415568.3336408,-2.5931392,-2.5599663,0.9091384,2.460107,-0.7060075,3.7291796
376,1778415568.3437145,-2.276901,-2.5365503,0.7998028,2.945745,-0.42745295,4.576297
377,1778415568.3538013,-1.4952701,-2.4398985,0.46118546,3.344029,-0.12782355,5.5284834
378,1778415568.3638768,-0.848891,-2.3332458,0.16281438,3.6300666,0.08200866,6.2318945
379,1778415568.37395,-0.848891,-2.3332458,0.16281438,3.6300666,0.08200866,6.2318945
380,1778415568.3840318,0.13116619,-2.1843958,-0.3544719,4.361578,0.06383542,7.10421
381,1778415568.3941052,0.6519892,-2.2173855,-0.56247187,4.361578,0.06383542,7.10421
382,1778415568.4041963,1.0287796,-2.2662296,-0.7168101,5.1949506,-0.11301007,7.933765
383,1778415568.4142697,1.5886903,-2.4105675,-0.77638674,5.319109,0.1217149,8.686503
384,1778415568.4243927,2.027923,-2.4982555,-0.8110839,5.0019174,0.61819565,9.436799
385,1778415568.4345503,2.6324708,-2.540758,-0.85883063,4.0651555,1.5488489,10.567053
386,1778415568.4448683,3.1915886,-2.3408072,-1.100491,2.7122416,2.433229,11.470217
387,1778415568.4551694,3.567647,-2.2114706,-1.3653235,1.4388931,2.6019804,11.893241
388,1778415568.4652784,3.9741955,-2.0854876,-1.5845437,1.4388931,2.6019804,11.893241
389,1778415568.4753985,4.232503,-1.8463882,-1.589422,0.15683965,1.0856602,11.9503565
390,1778415568.4854856,4.338546,-1.5244182,-1.4030087,-0.13439035,-0.076816306,11.416919
391,1778415568.4956028,4.30019,-1.3528838,-1.1762271,-0.3043636,-0.81183994,10.732291
392,1778415568.5057154,4.11896,-1.241414,-0.8473665,-0.5635232,-1.3932309,9.777204
393,1778415568.515848,3.832358,-1.2348281,-0.58027774,-0.798859,-1.5900823,8.925352
394,1778415568.5259974,3.594966,-1.3187965,-0.46649066,-0.9660834,-1.6134478,8.354346
395,1778415568.5361197,3.3407438,-1.4159362,-0.3910594,-1.111622,-1.6152804,7.8662643
396,1778415568.5462162,3.0944488,-1.4931968,-0.38331506,-1.1724031,-1.7125608,7.6637626
397,1778415568.5563223,2.9147432,-1.618814,-0.39892572,-1.1267409,-1.9155207,7.6213074
398,1778415568.5664206,2.8299823,-1.6981478,-0.35483778,-0.9427178,-2.21683,7.7659297
399,1778415568.5766013,2.801505,-1.7146122,-0.30306646,-0.7761043,-2.4094052,8.033183
400,1778415568.5868115,2.7846138,-1.6930866,-0.2822116,-0.7458665,-2.4770586,8.194146
401,1778415568.5969954,2.77193,-1.6593041,-0.21037814,-0.70356405,-2.4591908,8.2892885
402,1778415568.6071124,2.786199,-1.5866779,-0.20793895,-0.5934556,-2.3716843,8.334798
403,1778415568.6172495,2.8768752,-1.536797,-0.32142118,-0.4454735,-2.4388795,8.372366
404,1778415568.6274703,3.0749357,-1.3303216,-0.36380172,-0.17440203,-2.8370109,8.5305805
405,1778415568.637583,3.3006194,-1.0299991,-0.2093415,0.05299256,-3.0807462,8.614727
406,1778415568.6476948,3.562403,-0.80803496,-0.027806502,0.06566802,-2.9034426,8.561124
407,1778415568.6578093,3.8150396,-0.54515374,0.17543708,-0.17195857,-2.3087652,8.465218
408,1778415568.6679518,3.9773662,-0.051649354,0.3406906,-0.8678868,-1.1459832,8.193688
409,1778415568.6780672,4.074384,0.31843323,0.4723446,-1.7325666,0.14905111,7.574118
410,1778415568.6882179,4.089263,0.5031391,0.43905002,-2.3794727,1.1980594,6.9311824
411,1778415568.698336,4.1939034,0.56924057,0.39203507,-2.4071145,1.6334536,6.5736737
412,1778415568.7085936,4.5910606,0.8684043,0.25306356,-1.5170839,1.2945762,6.7331095
413,1778415568.7187219,5.183595,1.3211746,0.22672056,-0.31047225,0.753655,6.887811
414,1778415568.7289228,6.056512,2.0218863,0.22556195,0.9821186,0.4063781,6.431342
415,1778415568.7391613,6.765578,2.6085668,0.1478135,1.4280503,0.34437528,4.8386636
416,1778415568.7492723,7.093767,2.7526605,0.20946345,1.2663237,0.310625,2.2634084
417,1778415568.759385,7.11383,2.599298,0.28519958,1.2243266,0.3381139,0.59131753
418,1778415568.7695053,6.915891,2.0482292,0.3170307,1.5490016,0.32711834,-1.9949331
419,1778415568.7796276,6.465743,1.2964171,0.2935537,2.0421226,0.23564127,-4.077678
420,1778415568.7897294,6.0871844,0.60107166,0.22812307,2.3237314,0.1348485,-5.5697165
421,1778415568.7998605,5.608925,-0.4610635,0.27379647,2.275473,0.0804815,-6.3670483
422,1778415568.8099694,5.326103,-0.9567021,0.44124526,2.0263927,0.29764408,-6.541603
423,1778415568.8201027,4.9749246,-1.2610493,0.69150376,1.4207199,1.3190107,-6.3261204
424,1778415568.8302248,4.680883,-1.3094057,0.77217925,0.96883225,2.3913846,-6.0446644
425,1778415568.8403323,4.4886155,-1.2082412,0.60595,0.44104472,3.6981783,-5.725487
426,1778415568.8504436,4.329094,-1.0320115,0.418683,0.17547104,4.4703116,-5.556583
427,1778415568.8605523,4.1735973,-0.8230968,0.2526367,0.0786489,4.9134946,-5.5500164
428,1778415568.8706453,3.9577308,-0.57552135,0.1595215,0.1908954,5.068349,-5.817575
429,1778415568.8807378,3.4066622,-0.29623678,0.18281554,0.61575216,4.9706106,-6.342003
430,1778415568.890828,3.4066622,-0.29623678,0.18281554,1.3075571,4.7580295,-7.0307536
431,1778415568.9009182,3.1884787,-0.292761,0.12372673,2.1168008,4.3385177,-7.7479095
432,1778415568.911026,3.0249326,-0.33751968,0.08866371,2.8573222,3.780645,-8.468272
433,1778415568.9211514,2.968283,-0.39551088,0.08872469,3.294549,3.3257031,-8.990868
434,1778415568.9314172,3.006334,-0.40910926,0.1027499,3.4898732,2.9469666,-9.502467
435,1778415568.9415724,3.062069,-0.6971138,0.15586275,3.2696562,2.5439484,-10.304686
436,1778415568.95167,3.062069,-0.6971138,0.15586275,3.0016391,2.414903,-10.822242
437,1778415568.9617825,3.03847,-0.9370059,0.123299874,2.8058567,2.3096814,-11.295204
438,1778415568.9719975,3.0024922,-1.3100154,0.021098793,2.6870434,2.0497584,-11.744648
439,1778415568.982139,3.0050533,-1.6813787,-0.1741565,2.7020097,1.4657712,-11.965781
440,1778415568.9922543,2.9473062,-1.9510894,-0.28757775,2.5938866,-0.7334964,-11.785576
441,1778415569.002354,2.894925,-1.9748104,-0.22885482,2.468201,-1.5503759,-11.510228
442,1778415569.0124505,2.8546178,-1.9481014,-0.03872177,2.2374468,-2.1881194,-10.78391
443,1778415569.0225818,2.8589473,-1.829863,0.08945644,1.7557794,-2.2107213,-10.1838875
444,1778415569.0328987,2.880717,-1.7168075,0.09890821,1.0963504,-1.8438967,-9.624946
445,1778415569.0429995,2.9292564,-1.6152772,-0.06628435,0.013286319,-1.1876748,-9.004917
446,1778415569.0531197,2.9292564,-1.6152772,-0.06628435,0.013286319,-1.1876748,-9.004917
447,1778415569.0632312,2.9408424,-1.5117955,-0.21824445,-1.5813774,-0.46944994,-7.912385
448,1778415569.0734549,2.9585874,-1.3935568,-0.3172746,-1.5813774,-0.46944994,-7.912385
449,1778415569.0835776,2.8562033,-1.1664705,-0.40971902,-2.0094411,0.34254268,-6.792363
450,1778415569.0936766,2.75449,-1.1111623,-0.57454574,-1.8799378,0.59880066,-6.3649106
451,1778415569.1037743,2.6432638,-0.9846306,-0.73101825,-1.7333301,0.62109727,-6.0361123
452,1778415569.113888,2.5587468,-0.8880396,-0.7244935,-1.7128662,0.57879484,-5.901722
453,1778415569.1240172,2.3953228,-0.7762648,-0.6977846,-1.7851009,0.66843927,-5.7845883
454,1778415569.134127,2.3953228,-0.7762648,-0.6977846,-1.7851009,0.66843927,-5.7845883
455,1778415569.1443334,2.0583518,-0.85724515,-0.6133285,-1.6856827,1.1357512,-6.057798
456,1778415569.154547,1.5708233,-1.2808064,-0.8244993,-1.1378893,1.3136657,-6.463107
457,1778415569.1646724,1.5708233,-1.2808064,-0.8244993,-0.52855116,1.1510228,-6.820616
458,1778415569.1747937,0.03445323,-2.4014206,-1.1957406,0.25534168,0.29642236,-6.902014
459,1778415569.1849267,-0.81303525,-2.804493,-1.0267063,0.6235407,-0.39660427,-6.4343963
460,1778415569.195032,-1.5550908,-3.442945,-0.8104741,0.46410486,-0.43157628,-5.6117134
461,1778415569.2051513,-2.3774557,-3.8497367,-0.769923,-0.4622723,-0.18860464,-4.616003
462,1778415569.2153099,-2.8826072,-4.1786585,-0.6799177,-1.1311697,0.031154128,-3.5750887
463,1778415569.2254584,-3.4170287,-4.1820126,-0.6243657,-1.5790867,0.18112154,-2.4788911
464,1778415569.235624,-3.907789,-4.1307898,-0.5411291,-1.7502817,-0.014202617,-1.2771665
465,1778415569.2457376,-4.150669,-4.1075563,-0.22367159,-1.45615,-0.47968194,0.025961773
466,1778415569.2558758,-4.165792,-4.053468,0.017805915,-1.0804679,-0.6805039,0.83184576
467,1778415569.2659764,-4.125789,-3.9526088,0.25001457,-0.69058317,-0.73548174,1.5253305
468,1778415569.2761054,-3.9674265,-3.7950995,0.36185038,-0.12156218,-0.7527387,2.394439
469,1778415569.2863386,-3.6369805,-3.5987468,0.4586853,0.5357288,-0.81153446,3.371518
470,1778415569.2964687,-3.1421344,-3.336414,0.47124702,1.231657,-0.81016004,4.4376307
471,1778415569.3065858,-2.6433249,-3.0931683,0.41392657,1.813659,-0.7648033,5.225952
472,1778415569.3168843,-1.9216974,-2.7957728,0.25184396,2.5149322,-0.68630713,6.0413046
473,1778415569.3270366,-1.314284,-2.6157014,0.110311314,2.9982793,-0.5983425,6.5431304
474,1778415569.3373024,-0.63363457,-2.4289832,-0.094212815,3.481779,-0.37888917,7.0951996
475,1778415569.3474257,0.01243975,-2.3544056,-0.3456909,3.7487273,-0.27412578,7.3986473
476,1778415569.3575377,0.4806988,-2.3077567,-0.4795402,4.071875,-0.20341812,7.773566
477,1778415569.3677065,0.9584705,-2.318672,-0.6243047,4.2308526,-0.15470162,7.9824815
478,1778415569.3778226,1.5815557,-2.2850113,-0.8807221,4.3828053,-0.18310685,8.396954
479,1778415569.3879268,2.0801823,-2.26562,-0.9726787,4.392579,-0.31337386,8.723309
480,1778415569.398037,2.5070975,-2.2674494,-0.97914255,4.131282,-0.2744312,9.271712
481,1778415569.4082248,3.0127978,-2.1618943,-0.88145393,3.6448803,-0.013439035,9.728487
482,1778415569.4183645,3.3844657,-1.9354179,-0.8351097,2.641992,0.48899764,10.067212
483,1778415569.428542,3.5868554,-1.7751036,-0.7866922,1.5354098,0.8362745,10.078818
484,1778415569.4387414,3.6599698,-1.7522974,-0.7929731,0.7870999,0.8680395,9.959089
485,1778415569.4488745,3.7052162,-1.8141912,-0.78352135,0.21700987,0.5539021,9.789421
486,1778415569.45905,3.6991184,-1.8051664,-0.6590018,-0.101098195,0.037110064,9.700082
487,1778415569.4691806,3.6913738,-1.7777257,-0.5725944,-0.28023443,-0.25259277,9.6611395
488,1778415569.4793117,3.6240528,-1.7021725,-0.3466056,-0.78954333,-0.6177375,9.522473
489,1778415569.4894543,3.522096,-1.6538769,-0.105250046,-1.3976597,-0.5879578,9.354943
490,1778415569.4997752,3.3937347,-1.6335099,0.024513626,-1.9759964,-0.34132096,9.238726
491,1778415569.5099466,3.219883,-1.6123502,0.053234816,-2.6804767,-0.06490443,9.107848
492,1778415569.5202413,3.038226,-1.6454618,-0.0056710625,-3.156188,-0.032223143,8.952383
493,1778415569.530568,2.8992546,-1.6752806,-0.09159071,-3.3105843,-0.29077184,8.819061
494,1778415569.5406985,2.7562585,-1.724064,-0.19287711,-3.2058208,-0.97402465,8.62893
495,1778415569.5508204,2.69284,-1.7493703,-0.1934869,-2.8038714,-1.845882,8.488584
496,1778415569.560985,2.7358303,-1.8132155,-0.14945993,-2.1989622,-2.641534,8.306393
497,1778415569.5711625,2.7940044,-1.8365705,-0.10726235,-1.8092301,-3.0549371,8.210181
498,1778415569.5812511,2.8878515,-1.8529129,0.029209021,-0.6102544,-3.5995235,8.209571
499,1778415569.5913894,3.0200543,-1.8191916,0.13452004,-0.6102544,-3.5995235,8.209571
500,1778415569.6016107,3.187808,-1.5317967,0.118055664,-0.34193182,-3.5164459,8.434674
501,1778415569.6117902,3.4291024,-1.2531829,0.109640546,-0.32834008,-3.3825135,8.615796
502,1778415569.621916,4.0563955,-0.48393068,0.42856157,-1.3238977,-2.4556782,8.838762
503,1778415569.63202,4.209575,-0.112445585,0.7585198,-2.0460932,-1.7449366,8.62557
504,1778415569.6421344,4.209575,-0.112445585,0.7585198,-2.0460932,-1.7449366,8.62557
505,1778415569.652261,4.4976406,0.6095478,1.4603292,-3.332117,0.9586003,7.754018
506,1778415569.6624007,4.4976406,0.6095478,1.4603292,-3.332117,0.9586003,7.754018
507,1778415569.672566,4.5819135,0.8854785,1.5201497,-3.3179145,1.6265814,7.324274
508,1778415569.6827865,4.8018045,1.1709219,1.2374502,-2.4350617,1.9362901,6.637967
509,1778415569.6929023,6.189325,1.929076,0.6590018,1.8162551,-0.6418667,4.816214
510,1778415569.7030103,6.9631505,2.449899,0.6048524,3.2313244,-1.9033034,3.1801646
511,1778415569.713134,7.2932916,2.8171155,0.846025,3.397938,-2.4512496,0.8651379
512,1778415569.7232592,7.2932916,2.8171155,0.846025,3.397938,-2.4512496,0.8651379
513,1778415569.7333736,7.030166,2.0274963,1.2516584,2.5980098,-0.8765916,-3.1450398
514,1778415569.7435486,6.683683,1.314406,1.094759,2.4443772,0.092240654,-4.395023
515,1778415569.7536697,6.070964,0.26208845,0.614548,2.4443772,0.092240654,-4.395023
516,1778415569.7638278,6.070964,0.26208845,0.614548,2.428342,0.9410379,-5.780007
517,1778415569.7739382,5.50337,-0.77815515,0.34319076,2.4953845,0.5748242,-6.752657
518,1778415569.7841837,5.50337,-0.77815515,0.34319076,2.4953845,0.5748242,-6.752657
519,1778415569.7943075,5.1041393,-1.1764101,0.67010003,2.0711386,0.8750645,-6.882619
520,1778415569.804431,4.871504,-1.1132356,0.7124196,1.602605,1.7122552,-6.7970977
521,1778415569.8145568,4.552217,-0.9606048,0.64168376,1.2463179,2.6381743,-6.705315
522,1778415569.8246648,4.2630534,-0.819621,0.5655208,1.0877982,3.284317,-6.6759934
523,1778415569.8347867,3.9032767,-0.62034106,0.38569325,1.035722,3.804316,-6.7248626
524,1778415569.8450534,3.6133814,-0.46051466,0.25208786,1.1548407,3.930307,-6.8995705
525,1778415569.8551598,3.3719652,-0.37075335,0.18629137,1.491733,3.7426186,-7.3070173
526,1778415569.8652897,3.0455434,-0.32562876,0.19306004,1.9938642,3.4405458,-7.865501
527,1778415569.8755138,2.8723016,-0.37624148,0.17311986,2.457969,3.18948,-8.3893175
528,1778415569.8856285,2.7243662,-0.54003155,0.102140106,3.0349312,2.8108964,-9.056383
529,1778415569.895751,2.5983832,-0.7332135,-0.037746105,3.5370624,2.23989,-9.704663
530,1778415569.9058638,2.4828887,-0.92566377,-0.050734665,3.8406625,1.5868752,-10.266507
531,1778415569.916135,2.3810537,-1.1324441,-0.13622746,3.9354994,0.9807441,-10.7431345
532,1778415569.9263363,2.3486125,-1.32898,-0.20251182,3.8673878,0.21273382,-11.034822
533,1778415569.9364629,2.2728765,-1.4863062,-0.17501022,3.709021,-0.39553526,-11.106294
534,1778415569.9465797,2.206653,-1.5446633,-0.13598356,3.4758232,-0.93584555,-11.063075
535,1778415569.9567637,2.1734195,-1.5547248,-0.06329638,3.0847168,-1.4763086,-10.915551
536,1778415569.9669971,2.1562843,-1.5258207,-0.005061271,3.0847168,-1.4763086,-10.915551
537,1778415569.9771388,2.1350026,-1.5081978,0.023111105,2.2626448,-1.9494237,-10.471147
538,1778415569.9872644,2.1059155,-1.50149,-0.044880666,1.8325957,-2.0615175,-10.107376
539,1778415569.997383,2.180981,-1.5211864,-0.12336086,1.4106406,-2.2194262,-9.626167
540,1778415570.0075023,2.2645833,-1.4663051,-0.18726702,0.9219484,-2.3819163,-9.027977
541,1778415570.0176091,2.3311727,-1.3878249,-0.15683842,0.43325618,-2.4501805,-8.49347
542,1778415570.0277379,2.297817,-1.2356209,-0.07982173,-0.30069843,-2.2276728,-7.887492
543,1778415570.0378551,2.3409293,-1.1907402,-0.05250306,-1.0769554,-1.7841847,-7.290524
544,1778415570.0479777,2.3431246,-1.1395177,-0.029026084,-1.7318029,-1.1713341,-6.6627073
545,1778415570.0581203,2.2811089,-1.0756725,-0.07683375,-2.1734586,-0.6394232,-6.2512894
546,1778415570.0682678,2.2341547,-1.0353043,-0.12799528,-2.4781275,-0.2359467,-5.8902683
547,1778415570.0784006,2.139942,-0.9531044,-0.26623505,-2.562427,0.028710667,-5.503743
548,1778415570.0885038,2.0401192,-0.8601721,-0.37831476,-2.3423629,-0.07971791,-5.2699347
549,1778415570.0986512,2.0835972,-0.875234,-0.3506912,-1.9228511,-0.28099802,-5.0541463
550,1778415570.108829,1.9909089,-0.80736417,-0.30160296,-1.630552,-0.21853705,-4.849048
551,1778415570.1189556,1.9909089,-0.80736417,-0.30160296,-1.5760323,-0.016187929,-4.847979
552,1778415570.129337,1.4953312,-0.72235924,-0.40923122,-1.726458,0.28970283,-5.0320024
553,1778415570.139464,1.8204112,-0.72729856,-0.32623854,-1.951409,0.57543504,-5.4991617
554,1778415570.1495757,0.5177741,-1.0995153,-0.49911448,-2.132836,0.75945824,-6.1602707
555,1778415570.1597168,-0.04116094,-1.624729,-0.6295489,-2.1413882,0.6640105,-6.9366803
556,1778415570.1698303,-0.72876203,-2.4767299,-0.6282074,-1.720502,0.15393804,-6.9079695
557,1778415570.180096,-1.472403,-3.3176935,-0.53814113,-1.0219775,-0.39599338,-6.2453337
558,1778415570.1902175,-2.3375754,-3.9465106,-0.3846566,-0.5175556,-1.1667526,-5.446322
559,1778415570.2005699,-3.061398,-4.618867,0.22330572,-0.11499538,-1.5158621,-3.9251146
560,1778415570.2110884,-4.0846286,-5.119689,0.92968833,-0.61437774,-0.32162055,-0.44104472
561,1778415570.2211866,-4.405379,-5.1587157,1.0196327,-1.205848,0.4202753,1.2287555
562,1778415570.231331,-4.4828224,-5.101517,1.0998203,-1.0554224,0.70814556,2.771801
563,1778415570.24154,-4.4828224,-5.101517,1.0998203,-1.0554224,0.70814556,2.771801
564,1778415570.2516513,-4.302507,-4.766071,1.2304376,0.18891008,0.6452264,4.240932
565,1778415570.2617643,-3.8860195,-4.453126,1.1520795,1.6421585,0.5653558,5.371491
566,1778415570.271895,-3.2509215,-4.1206064,0.9390182,2.954908,0.5729916,6.485251
567,1778415570.2820146,-2.2580585,-3.5864894,0.54875153,3.9333613,0.8200866,7.750811
568,1778415570.292337,-1.2212298,-3.0123708,0.17025384,4.214512,1.3616186,8.622363
569,1778415570.3024645,0.41179234,-2.2594001,-0.70040673,4.136016,1.9242256,9.059589
570,1778415570.3126543,0.87883174,-2.1472595,-0.99322873,4.008345,2.1094704,9.281334
571,1778415570.3228424,1.3683115,-2.0154836,-1.205985,4.0602684,1.6943874,9.266673
572,1778415570.3329458,1.8687066,-2.0634742,-1.1273218,4.1105123,1.2394456,9.341504
573,1778415570.3431015,1.8687066,-2.0634742,-1.1273218,4.1105123,1.2394456,9.341504
574,1778415570.3533108,2.4094698,-2.0829265,-0.8981622,3.8679988,1.3662001,9.763764
575,1778415570.3634574,2.7915044,-1.9584069,-0.8735875,3.3765576,1.7478381,10.122801
576,1778415570.3736463,3.1182306,-1.7201612,-1.0324383,2.5601363,2.0175352,10.203588
577,1778415570.3839312,3.2379327,-1.5586275,-1.1311026,1.96271,1.8700112,9.992839
578,1778415570.3940332,3.3150713,-1.3782511,-1.0872586,1.0574077,0.54565537,9.275683
579,1778415570.404161,3.325072,-1.355384,-0.86608714,0.70386946,0.005955936,8.939402
580,1778415570.4142773,3.2942164,-1.3298947,-0.5455806,0.22388211,-0.03023783,8.630915
581,1778415570.4245858,3.1999428,-1.3040395,-0.3328243,-0.24755314,0.16294831,8.432842
582,1778415570.4346998,3.0777407,-1.3573353,-0.19970676,-0.89980453,0.5523749,8.245459
583,1778415570.4448366,2.9470012,-1.3444078,-0.1340932,-1.4350752,0.84223044,8.169253
584,1778415570.4549716,2.7786987,-1.3451395,-0.066345334,-2.0926716,1.0954341,8.130922
585,1778415570.4651673,2.672229,-1.3147718,-0.030123709,-2.604424,1.1959214,8.084802
586,1778415570.4752588,2.5030727,-1.2930022,0.048661377,-3.1790955,1.2304354,7.9792747
587,1778415570.4854112,2.5030727,-1.2930022,0.048661377,-3.1790955,1.2304354,7.9792747
588,1778415570.495634,2.1593943,-1.3331876,0.047258858,-3.9150352,0.9822713,7.6718564
589,1778415570.5057487,2.1004884,-1.4306931,0.013049542,-4.016134,0.5352707,7.5315104
590,1778415570.5159204,2.0474975,-1.4530725,0.03823394,-3.9651263,0.0936151,7.4362154
591,1778415570.52601,1.9756031,-1.4392303,0.083175585,-3.7319286,-0.43967026,7.2972436
592,1778415570.536108,1.923161,-1.4201438,0.1153116,-3.3250923,-0.8978192,7.122383
593,1778415570.5462244,1.9157214,-1.4323397,0.09256637,-2.9350548,-1.2473868,7.0237284
594,1778415570.556347,1.9563336,-1.452036,0.034636166,-2.5471554,-1.6896533,7.0156345
595,1778415570.5664647,2.0915246,-1.4512432,-0.012073875,-2.1465805,-2.214081,7.0964217
596,1778415570.576598,2.397579,-1.4232538,-0.034270294,-1.5952746,-2.9695687,7.3652024
597,1778415570.5867298,2.397579,-1.4232538,-0.034270294,-1.5952746,-2.9695687,7.3652024
598,1778415570.5968523,3.155611,-1.024328,0.37050945,-1.5352571,-3.4666603,7.94751
599,1778415570.6069746,3.451055,-0.834378,0.66595346,-1.9225457,-3.004999,8.0180645
600,1778415570.6172512,3.7712567,-0.4610025,1.0516467,-2.607631,-1.8422168,7.9691954
601,1778415570.6273816,3.9240093,0.020671938,1.4329494,-3.4130569,-0.24465153,7.5304413
602,1778415570.6375296,4.0029774,0.34892282,1.5644815,-4.02774,1.4807373,6.670343
603,1778415570.647688,4.151157,0.38014415,1.3852028,-4.034307,2.3947444,5.9524236
604,1778415570.6578035,4.4361124,0.33904418,0.92322457,-3.2691982,2.3469443,5.3377404
605,1778415570.6679502,4.922787,0.43447655,0.56527686,-1.8858937,0.98715824,4.8482847
606,1778415570.6780858,5.35269,0.5271649,0.5377753,-1.0009027,-0.10567969,4.4634395
607,1778415570.6882167,6.1201134,0.7197371,0.86456263,0.18982637,-1.4379768,3.612657
608,1778415570.6983726,6.635509,1.0602448,1.2156807,0.74097955,-1.4824172,2.2073615
609,1778415570.708503,6.9235134,1.1403714,1.4383767,0.68783426,-0.8697194,1.0329732
610,1778415570.718639,6.845521,1.059574,1.4736835,0.69058317,0.26465738,-0.45814893
611,1778415570.728771,6.381043,0.9727397,1.2395235,1.0218248,1.1187997,-1.9211712
612,1778415570.7389133,5.957421,0.78449696,1.0340238,1.4735597,1.3293955,-3.0914364
613,1778415570.7490284,5.5219684,0.38179058,0.7943756,2.1810944,1.1598804,-4.4263296
614,1778415570.7591639,5.228232,0.04549046,0.6972968,2.702926,0.8371908,-5.494122
615,1778415570.7693348,4.98212,-0.28465074,0.7410798,3.0440943,0.6010914,-6.1146083
616,1778415570.779458,4.8016214,-0.43685475,0.8574891,2.9558241,0.7846564,-6.552599
617,1778415570.7895663,4.567218,-0.58796114,1.0154251,2.3318253,1.791515,-6.9548535
618,1778415570.7996962,4.384951,-0.6740027,1.0531102,1.5216653,3.1152601,-7.1039047
619,1778415570.809812,4.0964584,-0.7596785,1.0060343,0.70448035,4.551404,-7.0507593
620,1778415570.8199534,3.9217532,-0.76614225,0.8754169,0.26984972,5.757863,-6.9166746
621,1778415570.8300524,3.7215586,-0.75132436,0.6245487,0.10995574,6.3517766,-6.8977375
622,1778415570.8401735,3.5686226,-0.7782771,0.4861869,0.2780964,6.5968866,-6.9725685
623,1778415570.850265,3.4619703,-0.8725509,0.36020395,0.72601336,6.595512,-7.184997
624,1778415570.8603537,3.3462927,-0.99103343,0.286907,1.2986995,6.3945374,-7.538535
625,1778415570.870459,3.269581,-1.0850632,0.28239453,1.7015651,6.2222733,-7.790059
626,1778415570.8806076,3.1550622,-1.2677569,0.27080846,2.446668,5.9515076,-8.218734
627,1778415570.8907125,3.0644472,-1.4530725,0.17836407,2.446668,5.9515076,-8.218734
628,1778415570.9008083,2.9923086,-1.7010139,0.004085604,4.7196975,4.6335654,-9.790031
629,1778415570.9110308,2.9923086,-1.7010139,0.004085604,4.7196975,4.6335654,-9.790031
630,1778415570.9211695,2.9830399,-1.9320639,-0.26446667,5.5170293,3.1659617,-10.594236
631,1778415570.9313128,2.8984008,-1.8755974,-0.34916672,5.7581687,2.0862575,-10.9628935
632,1778415570.9416611,2.8984008,-1.8755974,-0.34916672,5.7581687,2.0862575,-10.9628935
633,1778415570.9519172,2.657838,-1.847425,-0.23068418,5.3421693,0.364992,-11.404091
634,1778415570.9622006,2.657838,-1.847425,-0.23068418,5.3421693,0.364992,-11.404091
635,1778415570.97243,2.5366113,-1.8307165,-0.21037814,4.968625,-0.075594574,-11.37538
636,1778415570.9825635,2.4426425,-1.8130326,-0.2014142,4.521777,-0.3915646,-11.23427
637,1778415570.9927664,2.37459,-1.7965682,-0.2591005,3.8327212,-0.69043046,-10.934182
638,1778415571.002872,2.201531,-1.724003,-0.37807086,2.21683,-1.0528263,-10.131659
639,1778415571.0129988,2.0728648,-1.6437545,-0.50454164,1.5334245,-1.3191634,-9.6480055
640,1778415571.0231013,1.999568,-1.6076548,-0.547349,1.058324,-1.674687,-9.154427
641,1778415571.0332236,1.8754752,-1.4552069,-0.3886812,0.48166725,-2.0247128,-8.381988
642,1778415571.0433288,1.7490044,-1.3124546,-0.22854991,-0.0022907446,-2.0254765,-7.6552105
643,1778415571.0534544,1.6662558,-1.191411,-0.16086306,-0.20295998,-1.8298469,-6.9603515
644,1778415571.0635612,1.5711282,-1.1031741,-0.21117085,-0.15149458,-1.617724,-6.425844
645,1778415571.0736556,1.4578899,-1.044878,-0.35605735,-0.046883907,-1.5676329,-6.1857743
646,1778415571.0839386,1.4578899,-1.044878,-0.35605735,-0.046883907,-1.5676329,-6.1857743
647,1778415571.0940597,1.3301996,-1.077258,-0.5144203,0.07788532,-1.6633861,-5.7760363
648,1778415571.1042035,0.8566963,-1.3256872,-0.3749609,-0.5215262,-1.3729197,-5.0013065
649,1778415571.1143236,0.29056573,-1.5266135,-0.16635117,-1.1672108,-0.68416905,-4.8236976
650,1778415571.1244535,-0.42892745,-1.7535169,-0.09274931,-1.5503759,0.10552697,-4.778341
651,1778415571.1346202,-0.8924301,-2.2587295,-0.1536675,-1.5199854,0.55771995,-4.5553746
652,1778415571.1447499,-1.5896659,-2.8254087,-0.3348976,-1.3941472,0.7162395,-4.3165264
653,1778415571.1548872,-2.1496377,-3.2071383,-0.35776478,-1.2756393,0.45753807,-4.078289
654,1778415571.1651223,-2.6544232,-3.7705247,-0.020732917,-1.0642799,0.27931812,-3.3354769
655,1778415571.175338,-2.953709,-4.213051,0.15525296,-0.9610438,0.5589417,-2.515085
656,1778415571.1854653,-3.222322,-4.6510644,0.13653237,-1.0195341,0.9660834,-1.2023355
657,1778415571.1956382,-3.222322,-4.6510644,0.13653237,-1.0195341,0.9660834,-1.2023355
658,1778415571.2057498,-3.5869164,-4.739606,0.07665081,-0.6385069,1.1108584,1.5189165
659,1778415571.2158842,-3.6450298,-4.720763,-0.03561183,-0.0047342055,0.893085,2.914438
660,1778415571.2259867,-3.4434326,-4.4303803,-0.009390792,0.5821546,0.44165558,4.1413608
661,1778415571.2361166,-2.8818755,-3.968707,0.26593015,1.0751228,0.4297437,5.531232
662,1778415571.246225,-2.2545218,-3.5199003,0.19373082,1.2081387,0.8031351,6.3661323
663,1778415571.2563517,-1.2940389,-2.9985895,-0.042136606,1.3292428,1.2525792,7.170642
664,1778415571.2664654,-0.39392543,-2.5881388,-0.14183754,1.5540411,1.4468343,7.464773
665,1778415571.276587,0.23684308,-2.4195924,-0.19629194,2.1001546,1.676825,7.8377066
666,1778415571.2867146,0.99396044,-2.3156228,-0.29166338,2.549446,1.7999145,8.288525
667,1778415571.2968183,1.6938794,-2.1929328,-0.33056808,2.7421741,2.048842,8.984453
668,1778415571.306949,2.3748336,-2.0387166,-0.4794792,2.3486242,2.1922426,9.694584
669,1778415571.317156,2.8817534,-1.9209048,-0.6027181,1.6869044,2.0163136,10.228328
670,1778415571.327278,3.490021,-1.6449132,-0.5366167,0.68539083,1.3309226,10.800097
671,1778415571.3375351,3.764732,-1.4245343,-0.39593774,0.2237294,0.82436264,10.910511
672,1778415571.3477693,3.86675,-1.2722694,-0.24989262,-0.09285152,0.36178493,10.818728
673,1778415571.3578985,3.9228508,-1.0327432,0.110860124,-0.25045475,0.014049901,10.547047
674,1778415571.3680382,3.8655305,-0.9353595,0.29148042,-0.20906863,-0.11178834,10.148763
675,1778415571.3781543,3.7831476,-0.9244442,0.3773391,-0.12385293,-0.10277808,9.81019
676,1778415571.3882887,3.6427736,-0.9924969,0.3996575,-0.07391469,0.01985312,9.396329
677,1778415571.3983855,3.4255657,-1.0255476,0.35203275,-0.15424347,0.14446963,9.044929
678,1778415571.4085147,3.2093337,-1.0391461,0.29794422,-0.3378085,0.13820826,8.773857
679,1778415571.4186115,3.011639,-1.0962225,0.18568157,-0.57711494,-0.043982297,8.601135
680,1778415571.4287395,2.8914492,-1.138664,0.14452063,-0.7309003,-0.3313944,8.5557785
681,1778415571.4388669,2.7813818,-1.1862278,0.17879093,-0.85994554,-0.66721755,8.5773115
682,1778415571.4491732,2.6929011,-1.2489144,0.24861206,-0.97524637,-0.851088,8.689558
683,1778415571.4593031,2.616616,-1.2784892,0.29965162,-1.0685561,-0.88178396,8.829905
684,1778415571.4697628,2.5752113,-1.2619029,0.30166394,-1.0685561,-0.88178396,8.829905
685,1778415571.4799802,2.5955174,-1.2303157,0.260503,-1.358717,-0.82711154,9.018968
686,1778415571.4901242,2.646008,-1.2503778,0.22348866,-1.596649,-0.890947,8.922145
687,1778415571.5002337,2.7113776,-1.3105034,0.17690057,-1.7806722,-1.0841331,8.827003
688,1778415571.5103617,2.775162,-1.3539205,0.1788519,-1.8984165,-1.4176655,8.767749
689,1778415571.5204859,2.7860162,-1.3834344,0.29916382,-1.9996674,-1.7017179,8.761029
690,1778415571.5306027,2.7536361,-1.3217845,0.41758534,-1.9659171,-1.7898352,9.032101
691,1778415571.54072,2.7803452,-1.2211078,0.5438732,-1.9659171,-1.7898352,9.032101
692,1778415571.5510619,2.9178534,-1.1173213,0.60399866,-1.9216293,-1.6756034,9.1445
693,1778415571.5611832,3.1654894,-0.857733,0.5961933,-1.9517145,-1.4607315,9.164659
694,1778415571.5713108,3.4381273,-0.5680819,0.5077735,-2.01219,-1.2626585,8.952688
695,1778415571.581659,3.6711287,-0.4167926,0.45978296,-2.02792,-1.205848,8.792642
696,1778415571.5918057,4.0857263,-0.004268542,0.4441113,-2.079996,-1.0983357,8.384583
697,1778415571.601912,4.6256967,0.4911262,0.766935,-2.2350032,-0.32604933,6.9802046
698,1778415571.612187,4.6256967,0.4911262,0.766935,-2.2350032,-0.32604933,6.9802046
699,1778415571.6222968,4.974498,0.6415009,0.76961803,-1.807703,0.24190263,6.4249277
700,1778415571.6324015,5.380558,0.86456263,0.6027791,-1.0543534,0.42821655,6.2059326
701,1778415571.642502,6.8023486,1.8207769,-0.12482436,1.3709344,-0.6395759,4.7962084
702,1778415571.652658,6.8023486,1.8207769,-0.12482436,1.3709344,-0.6395759,4.7962084
703,1778415571.6627905,7.2828026,2.1345148,-0.26519838,1.9714148,-1.2098186,4.0356812
704,1778415571.673081,7.5085483,2.6857665,0.06530869,2.4738514,-1.7223345,1.6916386
705,1778415571.6831899,7.276644,2.6647286,0.17964463,2.3330472,-1.0554224,-0.7849618
706,1778415571.693474,6.733747,1.9856646,-0.0734799,1.9572122,-0.12797627,-3.8655553
707,1778415571.7037282,5.455257,0.10342067,-0.5078345,1.8154916,-0.4260785,-6.9394293
708,1778415571.713865,5.1099324,-0.40502363,-0.44703826,1.998751,-1.0784826,-7.1562862
709,1778415571.7240007,4.826806,-0.8205357,-0.1817789,1.8562667,-1.2429581,-6.9985304
710,1778415571.7341259,4.5971584,-1.001095,0.14513041,1.0903945,-0.6488916,-6.6620965
711,1778415571.7442765,4.338119,-0.99164325,0.36685067,-0.14385876,0.7968737,-6.349028
712,1778415571.754415,4.10652,-0.90413815,0.4027064,-1.1467468,2.219579,-6.1753893
713,1778415571.76467,3.7794278,-0.7560197,0.25373432,-2.002111,3.7197113,-6.098573
714,1778415571.77496,3.7794278,-0.7560197,0.25373432,-2.002111,3.7197113,-6.098573
715,1778415571.7850683,3.179515,-0.53442144,-0.081956,-1.7640262,4.3514986,-6.432869
716,1778415571.7951672,2.898218,-0.50063896,-0.117140986,-0.870483,3.7169623,-6.850243
717,1778415571.805299,2.7437577,-0.55552024,-0.08165111,-0.0355829,3.0056098,-7.2462363
718,1778415571.8155057,2.5811262,-0.63552487,0.06726002,1.1418599,1.9423988,-7.884896
719,1778415571.8256176,2.4964871,-0.7097365,0.21739073,1.7145461,1.4567609,-8.325635
720,1778415571.8357491,2.4281905,-0.822548,0.33556834,2.1238258,1.1575897,-8.830668
721,1778415571.8458762,2.4151409,-0.9381035,0.31343293,2.2795963,0.97692627,-9.277822
722,1778415571.8561459,2.4275806,-1.0635376,0.23147692,2.358398,0.70371675,-9.609368
723,1778415571.866248,2.4047134,-1.1893377,0.19775544,2.4845417,0.26511553,-9.962448
724,1778415571.8763797,2.4400206,-1.3102595,0.19397473,2.5470026,-0.030695979,-10.100504
725,1778415571.8865151,2.4400206,-1.3102595,0.19397473,2.5470026,-0.030695979,-10.100504
726,1778415571.896623,2.614116,-1.5754577,0.22848894,2.44453,-0.8249735,-10.175335
727,1778415571.9067469,2.6644847,-1.6266193,0.2733696,2.224313,-0.93599826,-10.05698
728,1778415571.917004,2.6791809,-1.607106,0.27904066,1.8672624,-0.90133166,-9.874789
729,1778415571.9271257,2.7087555,-1.6130209,0.25416118,1.3866642,-0.8142834,-9.698555
730,1778415571.937258,2.7163172,-1.6051546,0.30513975,0.8054258,-0.5626069,-9.505063
731,1778415571.9474084,2.7456481,-1.6022276,0.31861615,0.33215797,-0.20540343,-9.36151
732,1778415571.957497,2.772601,-1.5858243,0.24397767,-0.21563543,0.27046058,-9.219483
733,1778415571.9676335,2.7851017,-1.5826533,0.12378771,-0.5725334,0.5172501,-9.151983
734,1778415571.9777462,2.7901018,-1.6604017,-0.0042075627,-0.62796944,0.51159966,-9.108612
735,1778415571.98803,2.6886325,-1.648328,-0.10701844,-0.47586402,0.2321288,-9.018814
736,1778415571.9981477,2.5572224,-1.6610115,-0.15702136,-0.19242255,-0.22403483,-8.920771
737,1778415572.00831,2.3453197,-1.586739,-0.17226616,0.13179417,-0.76251256,-8.814632
738,1778415572.0184283,2.0856705,-1.5256377,-0.16726585,0.30176744,-1.0855075,-8.724988
739,1778415572.0287042,1.7818112,-1.4955751,-0.12592198,0.34116822,-1.3545936,-8.507978
740,1778415572.0388224,1.4253271,-1.5099661,-0.15464316,0.19883664,-1.3933836,-8.160396
741,1778415572.0491822,1.117992,-1.5117345,-0.20263378,0.037415497,-1.435686,-7.677507
742,1778415572.0593166,0.66753894,-1.5479561,-0.20702426,-0.14614952,-1.4249959,-7.2234817
743,1778415572.0694659,0.28898028,-1.6320465,-0.23818462,-0.25686884,-1.3675746,-6.6776733
744,1778415572.079601,-0.11336028,-1.70388,-0.24403864,-0.39614612,-1.3147347,-6.0877304
745,1778415572.0897143,-0.51740825,-1.7980318,-0.2084268,-0.572228,-1.3232869,-5.367673
746,1778415572.0998228,-0.7396773,-2.016703,0.05353971,-0.65576386,-1.2030991,-4.6876273
747,1778415572.1099234,-1.6925988,-2.3939812,-0.07488242,-0.79183406,-0.27962357,-4.152662
748,1778415572.1200428,-1.6925988,-2.3939812,-0.07488242,-0.79183406,-0.27962357,-4.152662
749,1778415572.130252,-2.1754928,-2.6968646,-0.113116354,-0.52778757,-0.5366451,-3.6760342
750,1778415572.140427,-2.5570395,-2.836446,-0.13470298,-0.24495697,-0.95524055,-3.1729867
751,1778415572.150551,-2.828153,-3.0577393,0.028172374,0.23930646,-1.6282613,-2.264783
752,1778415572.1607742,-2.918097,-3.216834,0.38801044,0.5526803,-1.8358028,-1.1279627
753,1778415572.1710203,-2.9123042,-3.2601292,0.6665023,0.42287147,-1.5453364,-0.20479257
754,1778415572.1811516,-2.9112065,-3.2592754,0.86834335,-0.37598756,-0.49846604,1.055117
755,1778415572.1913905,-2.9106576,-3.2446406,0.8711484,-0.8257371,0.031154128,1.6232216
756,1778415572.2017171,-2.9106576,-3.2446406,0.8711484,-0.8257371,0.031154128,1.6232216
757,1778415572.2118618,-2.49417,-2.8262017,0.6676609,-0.9243918,0.50640726,3.9865067
758,1778415572.2219617,-2.1852493,-2.7232077,0.60991365,-0.3193298,0.30680707,4.6763263
759,1778415572.2320633,-1.8376681,-2.6729608,0.5158838,0.18799378,0.15470162,5.2876496
760,1778415572.242148,-1.2261081,-2.6858275,0.40764573,0.70371675,0.089491755,6.193868
761,1778415572.2522902,-1.2261081,-2.6858275,0.40764573,0.70371675,0.089491755,6.193868
762,1778415572.2624245,-0.5215548,-2.6189942,0.23922127,0.9447031,0.24404067,7.15705
763,1778415572.2725413,1.0496345,-2.4711196,-0.03561183,1.1679744,0.6293439,9.129076
764,1778415572.2826636,1.0496345,-2.4711196,-0.03561183,1.1679744,0.6293439,9.129076
765,1778415572.2928715,1.5150275,-2.4145312,-0.070248,1.2863295,0.82543164,9.690919
766,1778415572.3032367,2.2828772,-2.347515,-0.14848427,1.4382823,1.3206906,10.637149
767,1778415572.3134606,3.0058463,-2.219154,-0.25605154,1.3310753,2.0066924,11.541077
768,1778415572.3235886,3.9895618,-1.9501138,-0.61107224,0.1348485,2.9770517,12.527166
769,1778415572.3337166,3.9895618,-1.9501138,-0.61107224,0.1348485,2.9770517,12.527166
770,1778415572.343891,3.9895618,-1.9501138,-0.61107224,0.1348485,2.9770517,12.527166
771,1778415572.354012,4.279396,-1.4981972,-0.7238837,-1.9384282,1.5396858,11.902251
772,1778415572.364276,4.0847507,-1.3612379,-0.5497882,-1.7686076,0.6533204,11.200672
773,1778415572.3743749,4.0847507,-1.3612379,-0.5497882,-1.4216361,0.07467828,10.574688
774,1778415572.3845677,3.8911414,-1.2658056,-0.42173192,-1.4216361,0.07467828,10.574688
775,1778415572.394673,3.3603182,-1.0717089,-0.3333731,-0.54168475,-0.93645644,9.028893
776,1778415572.4048376,3.3603182,-1.0717089,-0.3333731,-0.54168475,-0.93645644,9.028893
777,1778415572.4149623,2.8117495,-0.9872528,-0.48795533,0.24251351,-2.1810944,7.493484
778,1778415572.4251263,2.6357636,-1.0260965,-0.48265013,0.46318856,-2.791654,6.8823133
779,1778415572.435285,2.6357636,-1.0260965,-0.48265013,0.46318856,-2.791654,6.8823133
780,1778415572.445516,2.3541007,-1.241109,-0.38886416,0.75732017,-3.5688274,6.419277
781,1778415572.4557629,2.324343,-1.3315411,-0.2680644,0.86926126,-3.7334557,6.547712
782,1778415572.4658837,2.3491004,-1.3935568,-0.0863465,0.9100365,-3.6008978,6.907206
783,1778415572.4759989,2.3572717,-1.3498958,0.059759583,0.8239045,-3.223994,7.2903714
784,1778415572.4860866,2.3669674,-1.2156807,0.16885132,0.6226244,-2.617405,7.6799507
785,1778415572.4961908,2.438618,-0.98926497,0.08116327,0.1872302,-1.7078265,8.001266
786,1778415572.5064688,2.438618,-0.98926497,0.08116327,0.1872302,-1.7078265,8.001266
787,1778415572.5166004,2.7352207,-0.7169931,-0.42215878,-1.1485794,-1.103528,8.119468
788,1778415572.5267222,3.0459094,-0.6246706,-0.42093918,-1.8484782,-1.396438,8.166505
789,1778415572.5368695,3.0459094,-0.6246706,-0.42093918,-1.8484782,-1.396438,8.166505
790,1778415572.546996,3.0459094,-0.6246706,-0.42093918,-1.8484782,-1.396438,8.166505
791,1778415572.5571349,3.0459094,-0.6246706,-0.42093918,-1.8484782,-1.396438,8.166505
792,1778415572.5672588,3.8596153,0.116104335,0.8493789,-3.8757873,-0.27580565,8.216596
793,1778415572.5774808,4.2644563,0.8024858,1.0702454,-4.808884,2.0665572,7.431634
794,1778415572.5876596,4.5067873,0.9760935,0.8893812,-4.7099237,2.3226624,6.85345
795,1778415572.5977805,5.1566424,1.2084242,0.87688047,-3.911981,1.8164078,6.042068
796,1778415572.6079118,5.81229,1.4772813,1.0547566,-2.521041,1.1475104,5.159673
797,1778415572.6180315,6.459523,1.7868725,1.1044546,-0.96593064,0.5694791,4.040721
798,1778415572.6282918,7.010348,2.1495156,1.0617692,0.34330627,0.031154128,2.5573874
799,1778415572.6384141,7.239203,2.3078785,1.1358589,1.0241156,-0.09728029,0.95722586
800,1778415572.648539,7.1943836,2.1861641,1.1926916,1.426065,0.33276883,-1.4295774
801,1778415572.6586645,6.871987,1.5503343,0.95353127,1.5308284,0.9923506,-3.731165
802,1778415572.6689887,6.498001,0.883954,0.7385797,1.6081028,1.2460123,-5.1289773
803,1778415572.6792269,6.0001063,0.14177656,0.6218656,1.7261524,1.2534955,-6.181193
804,1778415572.689557,5.7354565,-0.19135264,0.6642461,1.7994562,1.2421945,-6.486625
805,1778415572.699819,5.376533,-0.6577213,0.81724274,1.8159497,1.5567901,-6.612311
806,1778415572.709918,5.242379,-0.84224427,0.86309916,1.6484199,2.0593793,-6.5451155
807,1778415572.7201364,5.055905,-0.91237026,0.8335852,1.2371548,3.0144672,-6.5028133
808,1778415572.7304642,4.921446,-0.86657494,0.7487022,1.0285443,4.033543,-6.8540606
809,1778415572.7405987,4.66137,-0.74211645,0.72754246,1.0285443,4.033543,-6.8540606
810,1778415572.7507071,4.66137,-0.74211645,0.72754246,1.0285443,4.033543,-6.8540606
811,1778415572.760901,4.66137,-0.74211645,0.72754246,1.0285443,4.033543,-6.8540606
812,1778415572.7710328,3.8877876,-0.7206518,0.44185504,2.5975518,4.04011,-8.38214
813,1778415572.7812004,3.6527743,-0.810901,0.28855342,3.5025487,3.3680055,-9.20467
814,1778415572.791328,3.4934964,-0.8615746,0.23208672,4.235129,2.6943738,-9.914038
815,1778415572.801467,3.2811062,-1.0620742,0.07305304,5.0176473,1.717753,-10.799334
816,1778415572.8115954,3.1174989,-1.2108023,-0.023659917,5.563455,0.6096435,-11.616519
817,1778415572.8217368,2.9529772,-1.3511764,-0.10683551,5.7963476,-0.46883908,-12.321458
818,1778415572.8318403,2.8235185,-1.5354555,-0.17482726,5.685781,-1.5031867,-12.818702
819,1778415572.8419702,2.7612586,-1.7174172,-0.25568563,5.341406,-2.2829561,-12.968059
820,1778415572.8522232,2.7612586,-1.7174172,-0.25568563,5.341406,-2.2829561,-12.968059
821,1778415572.8624363,2.7612586,-1.7174172,-0.25568563,5.341406,-2.2829561,-12.968059
822,1778415572.872629,2.5069146,-1.8946228,-0.26147866,2.8570168,-3.9322922,-11.752589
823,1778415572.8827343,2.2875116,-1.7852261,-0.23159887,0.9755518,-3.842037,-10.585836
824,1778415572.8928607,2.2875116,-1.7852261,-0.23159887,0.9755518,-3.842037,-10.585836
825,1778415572.9029906,2.1685412,-1.7325401,-0.26019812,0.25793785,-3.6618316,-10.026589
826,1778415572.9131238,2.1523206,-1.5413094,-0.18299848,-1.1400273,-3.1349604,-7.8448844
827,1778415572.9232264,2.198116,-1.3989841,-0.15580177,-1.6368134,-2.6783388,-6.824892
828,1778415572.9335654,2.353674,-1.22934,-0.111165024,-2.0221167,-2.1719313,-6.114303
829,1778415572.943669,2.4356298,-1.0796971,-0.07543123,-2.515543,-1.3187053,-5.371491
830,1778415572.9539223,2.4356298,-1.0796971,-0.07543123,-2.515543,-1.3187053,-5.371491
831,1778415572.9640481,2.4356298,-1.0796971,-0.07543123,-2.515543,-1.3187053,-5.371491
832,1778415572.9741693,2.5111222,-0.79199743,-0.46612477,-3.1070135,0.43004912,-4.6337185
833,1778415572.9843333,2.5111222,-0.79199743,-0.46612477,-3.1070135,0.43004912,-4.6337185
834,1778415572.9944494,2.3925176,-0.6315613,-0.7365674,-2.097253,-0.5175556,-4.8789806
835,1778415573.004677,2.3925176,-0.6315613,-0.7365674,-2.097253,-0.5175556,-4.8789806
836,1778415573.014789,2.143235,-0.5960104,-0.6122918,-1.2334896,-1.2942708,-5.2705455
837,1778415573.0248985,1.5539931,-0.9206025,-0.56777704,-0.28130344,-1.65911,-5.9217277
838,1778415573.035019,1.1164676,-1.4189852,-0.608877,-0.41309762,-1.6969837,-6.1004057
839,1778415573.0451849,0.44337955,-1.9004767,-0.594181,-1.1565206,-1.6230689,-6.2421265
840,1778415573.055311,0.44337955,-1.9004767,-0.594181,-1.1565206,-1.6230689,-6.2421265
841,1778415573.065497,0.44337955,-1.9004767,-0.594181,-1.1565206,-1.6230689,-6.2421265
842,1778415573.0758235,0.44337955,-1.9004767,-0.594181,-1.1565206,-1.6230689,-6.2421265
843,1778415573.0859413,-1.9167582,-3.7779644,0.47179583,-1.9825631,-1.3370314,-4.7003026
844,1778415573.096048,-2.312452,-4.039504,0.6752833,-1.5596917,-1.1293371,-4.0227003
845,1778415573.1061664,-2.6585698,-4.5924025,0.7027239,-1.0797043,-0.8866709,-2.982244
846,1778415573.1163,-2.9159017,-5.0209637,0.7908998,-1.0850494,-0.945314,-1.2936599
847,1778415573.126438,-2.9981017,-5.0042553,1.0834779,-1.4150693,-0.8237518,-0.16081028
848,1778415573.1366663,-3.0188956,-4.953338,1.4451452,-1.7508925,-0.3052799,1.014189
849,1778415573.1468985,-3.0142612,-4.812781,1.522101,-1.5771013,0.20662516,2.0923662
850,1778415573.1570857,-3.0142612,-4.812781,1.522101,-1.5771013,0.20662516,2.0923662
851,1778415573.1672597,-3.0142612,-4.812781,1.522101,-1.5771013,0.20662516,2.0923662
852,1778415573.1775794,-3.0142612,-4.812781,1.522101,-1.5771013,0.20662516,2.0923662
853,1778415573.187854,-2.1229897,-4.021942,1.0640866,3.0062206,0.07925977,6.0826907
854,1778415573.1979742,-1.3989232,-3.7951605,0.87468517,3.763999,0.20082195,6.9415674
855,1778415573.2082262,-0.43014705,-3.4398348,0.5215548,4.629442,0.6826419,8.301506
856,1778415573.2183466,0.6052792,-3.0691426,0.050429773,5.022687,1.324814,9.399689
857,1778415573.2284908,1.5872267,-2.7772963,-0.35971612,5.1262283,1.8613064,10.229092
858,1778415573.2386088,2.3045857,-2.6292388,-0.61723113,5.0572004,2.310598,10.82499
859,1778415573.248767,3.1481714,-2.537404,-0.9317616,4.911662,2.538145,11.296731
860,1778415573.2590785,3.1481714,-2.537404,-0.9317616,4.911662,2.538145,11.296731
861,1778415573.2693717,3.1481714,-2.537404,-0.9317616,4.911662,2.538145,11.296731
862,1778415573.2796316,3.1481714,-2.537404,-0.9317616,4.911662,2.538145,11.296731
863,1778415573.289744,5.084809,-2.0148127,-1.1095159,4.2363505,2.3660338,11.8035965
864,1778415573.2999227,5.147434,-1.829497,-1.0461587,4.115857,2.004707,11.488695
865,1778415573.3101614,5.1504836,-1.7833357,-0.86694086,3.9156463,1.5293012,11.038487
866,1778415573.3203077,5.0887113,-1.8354731,-0.6446108,3.7548358,1.318858,10.598054
867,1778415573.3304453,4.936142,-1.8744996,-0.45264837,3.6384661,1.3906348,10.32408
868,1778415573.3405685,4.750826,-1.8871833,-0.28696796,3.3582318,1.6972891,10.270935
869,1778415573.3506925,4.5533147,-1.8427905,-0.11653119,2.766456,2.2481368,10.332786
870,1778415573.3609548,4.314215,-1.7918118,-0.04317325,2.1041253,2.7559185,10.402577
871,1778415573.3711674,4.314215,-1.7918118,-0.04317325,2.1041253,2.7559185,10.402577
872,1778415573.3814564,4.314215,-1.7918118,-0.04317325,2.1041253,2.7559185,10.402577
873,1778415573.3916547,3.6542375,-1.5862511,-0.120738745,0.57711494,3.4901786,10.356609
874,1778415573.4017723,3.4737394,-1.5559444,-0.16110696,-0.30405816,3.2065845,9.981997
875,1778415573.4120424,3.3188522,-1.5360042,-0.24720955,-0.45937067,2.7382035,9.774913
876,1778415573.4221516,3.1803687,-1.0965884,-0.42106113,-0.23930646,1.3451253,9.669081
877,1778415573.432255,3.2431772,-0.7738866,-0.38331506,-0.18952094,0.6959282,9.449933
878,1778415573.4423552,3.334158,-0.4788084,-0.2614177,-0.4821254,0.42836925,8.965516
879,1778415573.4526145,3.3592813,-0.28519958,-0.19360885,-0.991587,0.4466952,8.471327
880,1778415573.4627645,3.4933138,-0.16909523,-0.070248,-1.68553,0.5661194,8.0246315
881,1778415573.4728932,3.4933138,-0.16909523,-0.070248,-1.68553,0.5661194,8.0246315
882,1778415573.482997,3.7239978,0.3638627,0.10659158,-2.4744625,1.2011138,7.732332
883,1778415573.4930947,3.8474195,0.7968148,0.22464725,-2.8044822,1.6238326,7.355734
884,1778415573.503218,3.8474195,0.7968148,0.22464725,-2.8044822,1.6238326,7.355734
885,1778415573.5133626,3.9830372,1.0259744,0.33416584,-3.3050864,2.2715025,6.5370216
886,1778415573.5236204,4.25537,0.89261305,0.27556485,-3.4658966,2.7049112,4.997641
887,1778415573.5337718,4.5595956,0.8960889,0.19562118,-2.5405886,2.0822868,4.7171016
888,1778415573.5440302,5.2084136,0.9948142,0.08945644,-1.0658071,1.0899363,4.5393395
889,1778415573.5541484,5.82162,1.1876912,0.018903542,0.081397794,0.31642818,4.1082215
890,1778415573.5642793,6.468426,1.524906,-0.0123177925,0.96669424,-0.4896085,2.852588
891,1778415573.5743968,6.729661,1.6896716,0.09610317,1.4162911,-0.87979865,0.7246389
892,1778415573.5845003,6.782652,1.6799761,0.16165577,1.6158913,-0.9297369,-0.762818
893,1778415573.5946245,6.4784875,1.2386088,0.15525296,2.1149683,-0.9297369,-3.627318
894,1778415573.604724,5.9989476,0.66753894,0.034514207,2.5239425,-1.1664472,-5.1673093
895,1778415573.614827,5.534774,0.006341833,-0.010854292,3.0138564,-1.7568485,-6.550766
896,1778415573.6249614,5.157252,-0.58424145,0.17263202,3.2624786,-2.2988386,-7.3248854
897,1778415573.635078,4.937605,-0.9145046,0.4200855,3.153439,-2.3115141,-7.544033
898,1778415573.6452005,4.6988716,-1.1190287,0.69412583,2.7450757,-1.7762434,-7.463399
899,1778415573.6553912,4.491543,-1.1951916,0.7805334,1.8978056,-0.5581781,-7.2476106
900,1778415573.665519,4.241284,-1.0796362,0.7014434,0.944245,0.88239485,-7.0156345
901,1778415573.6756332,3.9619997,-0.8843199,0.5286284,0.23304509,2.068237,-6.889338
902,1778415573.685741,3.8413825,-0.8063275,0.4619782,0.07498371,2.4237607,-6.8872004
903,1778415573.6958447,3.4493475,-0.6093648,0.34892282,-0.02275473,3.1273246,-7.009984
904,1778415573.7059586,3.1304877,-0.49954134,0.2920902,0.28084528,3.4923167,-7.314806
905,1778415573.7160673,2.8235185,-0.50594413,0.13665432,0.6748534,3.5165985,-7.585419
906,1778415573.7262304,2.578626,-0.57387495,-0.056161813,1.2748758,3.1586316,-7.9174247
907,1778415573.7363837,2.4097137,-0.623634,-0.16952209,1.7275269,2.5964828,-8.181013
908,1778415573.7464998,2.2283618,-0.6451596,-0.26501545,2.2230914,1.7166841,-8.567691
909,1778415573.7567344,2.121953,-0.6665633,-0.28349215,2.6624563,0.6479753,-9.016677
910,1778415573.7668526,2.0824995,-0.70967555,-0.17360769,3.0056098,-0.26816985,-9.463066
911,1778415573.776982,2.064206,-0.7977295,-0.09274931,3.1871893,-0.80970186,-9.795988
912,1778415573.7871761,2.0540833,-0.9576168,-0.10146933,3.278361,-1.3614659,-10.181902
913,1778415573.7973378,2.1178064,-1.1689707,-0.22446433,3.222467,-1.9992093,-10.417237
914,1778415573.8074608,2.15726,-1.2806845,-0.2672717,3.0133982,-2.6253462,-10.467482
915,1778415573.8175585,2.194823,-1.340627,-0.23635526,2.542574,-3.3234124,-10.438007
916,1778415573.8276792,2.3098907,-1.402399,-0.11872645,1.9069686,-3.7673588,-10.292774
917,1778415573.8377895,2.390993,-1.4289858,0.010549396,1.282817,-3.7869065,-10.090883
918,1778415573.8479273,2.4138603,-1.4722201,0.1094576,0.30497447,-3.2953126,-9.665568
919,1778415573.858044,2.4200194,-1.5088075,0.09409086,-0.28160888,-2.8373163,-9.268659
920,1778415573.868174,2.3633087,-1.4479504,0.03750219,-0.85811293,-2.3359487,-8.738427
921,1778415573.8782911,2.330319,-1.3472128,-0.064637914,-1.1910346,-2.0842721,-8.341976
922,1778415573.8884106,2.3192816,-1.2516584,-0.0734799,-1.5039502,-1.8748982,-7.844273
923,1778415573.898522,2.3033051,-1.1698244,-0.078785084,-1.6606371,-1.7377589,-7.589237
924,1778415573.9087853,2.3262331,-1.0568299,-0.122324206,-1.8721492,-1.5506815,-7.2564683
925,1778415573.9188898,2.3570278,-0.9204195,-0.15391143,-1.9252945,-1.449125,-7.0415964
926,1778415573.9290326,2.3409293,-0.90334535,-0.16122891,-1.8203784,-1.3941472,-7.013191
927,1778415573.939272,2.2529364,-0.9116996,-0.20415826,-1.5696182,-1.4437801,-7.021896
928,1778415573.949547,2.0784748,-0.94285995,-0.27971146,-1.3002267,-1.6430748,-7.012733
929,1778415573.95975,1.8404123,-1.0021926,-0.29398057,-0.8400924,-2.1050417,-6.9482865
930,1778415573.9698658,1.6163747,-1.004083,-0.3500814,-0.5477934,-2.431091,-6.884299
931,1778415573.9801195,1.3479445,-1.0642084,-0.3030055,-0.19776763,-2.9081767,-6.782131
932,1778415573.9902415,0.92749316,-1.1517745,-0.14616705,0.07009678,-3.2328515,-6.6176558
933,1778415574.0004785,0.5560691,-1.2635493,-0.1144579,0.08659015,-3.3341024,-6.4919705
934,1778415574.0106082,0.027257688,-1.6263144,0.1203119,-0.5363397,-3.2475123,-6.2346435
935,1778415574.0207996,-0.600279,-2.0309112,0.58814406,-1.3805555,-2.806162,-5.998086
936,1778415574.030933,-1.4798424,-2.3684309,1.1188458,-2.3599253,-1.6959146,-5.5950675
937,1778415574.0410318,-2.6000907,-3.1489031,1.1184798,-1.2903001,-1.0464121,-4.2968264
938,1778415574.0512557,-2.6000907,-3.1489031,1.1184798,-1.2903001,-1.0464121,-4.2968264
939,1778415574.0615757,-2.8153472,-3.4592261,1.3662992,0.10949759,-1.1898128,-2.7682886
940,1778415574.0718877,-3.0136516,-3.548683,1.4045942,0.605062,-0.928057,-1.7634152
941,1778415574.0820656,-3.1467688,-3.3642817,1.4161192,0.29077184,-0.23258694,-0.72036284
942,1778415574.092224,-3.1467688,-3.3642817,1.4161192,-0.18417588,0.79305583,0.19624045
943,1778415574.1023712,-3.1365244,-3.3393412,1.2272058,-0.35918877,1.1139128,0.70005155
944,1778415574.1124995,-3.0106025,-3.2301273,1.0392679,-0.23411411,1.2304354,1.5016595
945,1778415574.1226268,-2.6602771,-3.043714,1.0417072,0.49449542,1.1676689,2.34221
946,1778415574.1327279,-1.9210877,-2.8738873,0.930908,1.487915,1.8258762,3.278972
947,1778415574.1428306,-1.4650245,-2.956636,0.66753894,1.805565,2.281429,3.8551705
948,1778415574.1531265,-1.0116444,-3.043714,0.45423386,2.0920608,2.64917,4.632191
949,1778415574.163232,-0.4042309,-3.0623739,0.1261659,2.2753203,2.9339857,5.538257
950,1778415574.173333,0.13238578,-2.9952967,-0.26001516,2.4869852,2.977968,6.320928
951,1778415574.1834664,0.13238578,-2.9952967,-0.26001516,2.4869852,2.977968,6.320928
952,1778415574.1935606,1.0082905,-2.7524776,-0.61942637,2.9292517,2.6299276,7.943386
953,1778415574.2036908,1.0082905,-2.7524776,-0.61942637,2.9292517,2.6299276,7.943386
954,1778415574.2138207,1.664975,-2.4806933,-0.6993701,2.946814,2.4576635,8.945052
955,1778415574.2240462,2.9657826,-2.0245695,-0.7128465,1.7765489,2.638327,10.825448
956,1778415574.2341666,3.49557,-1.8790121,-0.5907052,1.0348058,2.7162123,11.581699
957,1778415574.2443452,3.9043133,-1.7132707,-0.42831767,0.38973203,2.8706086,12.125523
958,1778415574.2544527,4.18811,-1.5382605,-0.29178533,-0.22113322,3.0163,12.333827
959,1778415574.2646112,4.2813473,-1.3676407,-0.24696562,-0.70402217,3.0286698,12.189358
960,1778415574.274737,4.2373815,-1.2671471,-0.2119026,-1.2275337,2.755155,11.685242
961,1778415574.2850845,4.1024346,-1.2514145,-0.2061096,-1.4100296,2.0841196,11.044902
962,1778415574.2952282,3.9646823,-1.2634274,-0.16952209,-1.2463179,1.3026701,10.525819
963,1778415574.3053737,3.8164423,-1.2684886,-0.091102876,-0.9138544,0.4998405,10.027047
964,1778415574.3156865,3.8164423,-1.2684886,-0.091102876,-0.9138544,0.4998405,10.027047
965,1778415574.3258169,3.4535553,-1.2307425,0.11866546,-0.071013086,-1.016327,8.951924
966,1778415574.3359473,3.278789,-1.217693,0.2437947,0.1685988,-1.2878567,8.561276
967,1778415574.3460727,3.1240847,-1.1829349,0.27769914,0.24098633,-1.2702943,8.275392
968,1778415574.3561952,3.0110292,-1.1750076,0.28050417,0.17440203,-1.169807,8.109847
969,1778415574.3663173,2.898218,-1.2188516,0.25836873,-0.025350908,-0.9793697,8.039903
970,1778415574.3765616,2.8170547,-1.2602564,0.22824502,-0.28939742,-0.86452705,8.127104
971,1778415574.3866646,2.76882,-1.241231,0.22446433,-0.5991061,-0.75793105,8.266229
972,1778415574.3969243,2.7713811,-1.13842,0.21068303,-0.88499105,-0.67073005,8.375726
973,1778415574.4070315,2.780528,-0.99121636,0.22336671,-1.2609786,-0.54809886,8.442005
974,1778415574.4172006,2.7933948,-0.8799294,0.30489585,-1.8632917,-0.31673363,8.4875145
975,1778415574.427323,2.812298,-0.725896,0.30971318,-2.4269676,-0.114689946,8.524166
976,1778415574.4374704,2.9490745,-0.56369144,0.304347,-2.845105,-0.14019357,8.575937
977,1778415574.4476197,3.1454885,-0.28672403,0.46392953,-3.1514537,-0.20845777,8.559443
978,1778415574.457756,3.2926922,0.007866313,0.6085111,-3.3257031,-0.059253927,8.382751
979,1778415574.467886,3.5425847,0.27843088,0.7450435,-3.4962873,0.35414913,7.948273
980,1778415574.4780374,3.813759,0.48551616,0.7894973,-3.606243,0.8031351,7.3613844
981,1778415574.488174,4.046334,0.61296254,0.75181216,-3.5445457,1.042747,6.839858
982,1778415574.4982898,4.4306245,0.68949145,0.6760151,-3.1073189,0.9857838,6.201657
983,1778415574.5084217,4.786133,0.8012663,0.6599165,-2.4297166,0.7298313,5.687919
984,1778415574.518543,5.1974983,0.994997,0.67955184,-1.4089607,0.39370266,4.976108
985,1778415574.5286696,5.6799655,1.1764101,0.6805275,-0.24281894,0.13988814,4.3056836
986,1778415574.53878,6.125906,1.4678296,0.55698377,1.0115929,-0.0421497,3.573409
987,1778415574.5488925,6.4883056,1.7577245,0.40843847,2.1749856,-0.25137106,2.5960245
988,1778415574.5590057,6.765578,2.1729317,0.23757485,2.825099,-0.29520062,1.4014776
989,1778415574.5691497,6.7763095,2.2982438,0.007622396,3.0256155,-0.16783522,-0.70249504
990,1778415574.579434,6.555139,1.9656024,-0.20208496,2.7747025,-0.20463985,-2.9697213
991,1778415574.5896401,6.1533465,1.4036185,-0.096042186,2.545781,-0.52595496,-4.814229
992,1778415574.5998154,5.8811965,1.0313407,0.10616472,2.4689646,-0.68493265,-5.611408
993,1778415574.6099281,5.541665,0.54576355,0.41880494,2.422997,-0.657291,-6.3487225
994,1778415574.6200624,5.1199937,-0.08787098,0.73839676,2.3587034,0.0062613687,-6.8537555
995,1778415574.6301844,4.822477,-0.41813415,0.73955536,2.1502457,0.7841983,-6.9275174
996,1778415574.640476,4.502824,-0.48539415,0.61180395,1.8565722,1.4395039,-6.971347
997,1778415574.6505976,4.123838,-0.37752202,0.51088345,1.7295122,1.8368717,-7.1616316
998,1778415574.6607172,3.8336384,-0.3125792,0.45953903,1.7356209,2.0285308,-7.3951344
999,1778415574.6708622,3.4966066,-0.27733323,0.3978281,2.191479,2.1271856,-8.079915
