id,timestamp,acc_x,acc_y,acc_z,gyro_x,gyro_y,gyro_z
0,1778415710.8372526,0.36343583,0.42179292,0.4867357,0.068264194,-2.4732406,0.78984874
1,1778415710.8474638,0.3536182,0.3811808,0.39843786,-0.102319926,-2.2649355,0.8335256
2,1778415710.857624,0.36581403,0.32251883,0.33794656,-0.34666604,-2.1633792,0.97433007
3,1778415710.867761,0.39587677,0.2961758,0.313189,-0.4972443,-2.1287127,1.1691961
4,1778415710.877877,0.46069762,0.29318783,0.3144086,-0.57757306,-2.146275,1.2825116
5,1778415710.8880076,0.5394217,0.31544524,0.27074748,-0.82344633,-2.3921483,1.4645494
6,1778415710.898122,0.6744906,0.31062788,0.3626431,-1.077719,-2.6222918,1.6404786
7,1778415710.9082432,0.6886987,0.35252056,0.36233822,-1.2053899,-2.7229319,1.6771306
8,1778415710.918362,0.78559464,0.36965573,0.43100074,-1.3394748,-2.9164233,1.7221818
9,1778415710.9284947,0.8884665,0.41374367,0.5966811,-1.4538593,-2.8614454,1.6598736
10,1778415710.9386032,0.9406037,0.41484126,0.6752833,-1.4743233,-2.627484,1.5282321
11,1778415710.9488893,0.9838988,0.38361996,0.67138064,-1.45783,-2.3380868,1.4318681
12,1778415710.9590127,0.980606,0.34306878,0.6186337,-1.3518448,-2.3084598,1.4625641
13,1778415710.9691339,0.99408233,0.33227548,0.59430295,-1.1233811,-2.3796256,1.5409076
14,1778415710.9792633,0.98761857,0.357094,0.56454515,-0.7324274,-2.545781,1.5624406
15,1778415710.9894702,1.0104858,0.33855635,0.5611303,-0.40698898,-2.6887233,1.5541939
16,1778415710.9996202,1.0795752,0.32940948,0.63826895,-0.02107485,-2.683531,1.5625933
17,1778415711.0097444,1.1014667,0.31959182,0.62564623,0.08017606,-2.547919,1.5384641
18,1778415711.0198731,1.1248218,0.28776067,0.550337,0.105374254,-2.43216,1.5604553
19,1778415711.0299883,1.089271,0.28824854,0.55484945,-0.19425514,-2.2533293,1.5807666
20,1778415711.040193,1.141347,0.2497097,0.5524712,-0.4784602,-2.0405953,1.662317
21,1778415711.050456,1.1492743,0.25885656,0.4876504,-0.6421721,-1.8852829,1.6959146
22,1778415711.0605943,1.1543356,0.2874558,0.42179292,-0.7339546,-1.8269452,1.7104226
23,1778415711.0707352,1.2200712,0.39179114,0.4511239,-0.7153232,-1.8729129,1.6612481
24,1778415711.0808566,1.2580001,0.4563681,0.5960104,-0.70661837,-1.7499762,1.4924965
25,1778415711.091226,1.3317851,0.43594006,0.6308905,-0.79549927,-0.8596401,0.9379836
26,1778415711.1013854,1.3317851,0.43594006,0.6308905,-0.79549927,-0.8596401,0.9379836
27,1778415711.111556,1.3082471,0.39331564,0.5334458,-0.78893244,-0.6401868,0.7325801
28,1778415711.121917,1.2757452,0.35136196,0.4856381,-0.73624533,-0.5560401,0.606131
29,1778415711.132201,1.1962893,0.25483194,0.43886706,-0.31856623,-0.733191,0.6348417
30,1778415711.1423104,1.2006798,0.2622714,0.52588433,-0.16768251,-0.8028296,0.7273878
31,1778415711.1524584,1.2344012,0.30824968,0.6120479,-0.089949906,-0.7247916,0.8061894
32,1778415711.1626382,1.3037345,0.41118255,0.688028,-0.15149458,-0.42164972,0.7779369
33,1778415711.172794,1.340444,0.48082075,0.68308866,-0.27840182,-0.105068825,0.64996064
34,1778415711.1829123,1.4013622,0.556313,0.6571115,-0.40958515,0.1873829,0.33841935
35,1778415711.193071,1.4013622,0.556313,0.6571115,-0.40958515,0.1873829,0.33841935
36,1778415711.2032013,1.4574021,0.59180284,0.6338175,-0.3474296,0.5535966,-0.33948836
37,1778415711.2135458,1.4574021,0.59180284,0.6338175,-0.3474296,0.5535966,-0.33948836
38,1778415711.2237406,1.43112,0.55869114,0.6589409,-0.18570304,0.74189585,-0.6479753
39,1778415711.2338576,1.346542,0.47228366,0.5518005,-0.09010262,0.97173387,-0.81504697
40,1778415711.2440424,1.2935511,0.46057564,0.49954134,0.24633141,1.0578659,-1.0677924
41,1778415711.254156,1.2655007,0.43661085,0.45209953,0.39278635,0.9605856,-1.1600331
42,1778415711.2642891,1.2395235,0.43801335,0.42837867,0.56184334,0.7834347,-1.2573134
43,1778415711.2744348,1.2449507,0.46874684,0.42959824,0.72601336,0.623388,-1.3632985
44,1778415711.284557,1.2661715,0.5111884,0.46136835,0.87781334,0.5018258,-1.5166256
45,1778415711.2946815,1.2834896,0.53515315,0.49618748,0.95188075,0.4905248,-1.6348281
46,1778415711.3047857,1.3018442,0.556191,0.54612947,1.0299188,0.59498274,-1.890017
47,1778415711.3152144,1.3018442,0.556191,0.54612947,1.0299188,0.59498274,-1.890017
48,1778415711.325549,1.2975148,0.5508248,0.56271577,1.044885,0.71791935,-2.0416644
49,1778415711.3358781,1.2571466,0.5010658,0.5086882,1.0491611,0.8492554,-2.1835377
50,1778415711.3460152,1.2238518,0.49356538,0.3945352,1.293049,0.63316184,-2.296395
51,1778415711.356147,1.2172052,0.49704117,0.4251468,1.3903292,0.52412236,-2.3330472
52,1778415711.3662755,1.1941551,0.5166155,0.480089,1.400714,0.5216789,-2.3832908
53,1778415711.3764067,1.1993992,0.5438732,0.4488067,1.3483323,0.5702427,-2.4303274
54,1778415711.3865614,1.2036678,0.5798509,0.41112155,1.2527319,0.5936083,-2.5395195
55,1778415711.3967004,1.2003139,0.59887636,0.41343874,1.1591167,0.5867361,-2.6780334
56,1778415711.406811,1.1901914,0.59747386,0.43685475,1.1036807,0.6195701,-2.7850873
57,1778415711.4169192,1.1697633,0.59314436,0.44520888,1.0668762,0.68493265,-2.8605292
58,1778415711.4270248,1.0995764,0.5844243,0.44405028,1.0546589,0.80680025,-2.939789
59,1778415711.4371583,1.0631719,0.5453367,0.39770615,1.0358747,0.91782504,-2.9492574
60,1778415711.4472842,1.0207913,0.5422877,0.32105532,1.0034989,0.9265299,-2.9194777
61,1778415711.4574156,0.97084934,0.5417999,0.27843088,0.98868537,0.82527894,-2.8816042
62,1778415711.4676688,0.9479211,0.5573496,0.26336902,0.97494096,0.7324274,-2.8571694
63,1778415711.4777923,0.9234686,0.58753425,0.23842856,0.9921979,0.5768095,-2.862362
64,1778415711.4879897,0.8807221,0.5993643,0.26769856,1.0771081,0.44241914,-2.9051223
65,1778415711.49811,0.8628552,0.6100966,0.28910223,1.1794281,0.38759398,-2.9526172
66,1778415711.50824,0.82706046,0.58637565,0.3448372,1.202641,0.41523564,-2.9529226
67,1778415711.5183551,0.79510736,0.57820445,0.38831535,1.1323915,0.5494733,-2.9078712
68,1778415711.528509,0.7788869,0.61515784,0.35117903,0.9558514,0.79412484,-2.8690813
69,1778415711.538633,0.74486053,0.65644073,0.26300314,0.7838928,0.93492925,-2.9234483
70,1778415711.5488625,0.70827305,0.62418276,0.18458393,0.72127914,0.8857546,-2.9620855
71,1778415711.5591896,0.6805275,0.62662196,0.18269359,0.7742717,0.7312057,-2.9150488
72,1778415711.569317,0.606011,0.6651608,0.18080322,0.8900307,0.6400341,-2.9323058
73,1778415711.579585,0.58119243,0.64619625,0.193182,1.0758864,0.5172501,-2.958726
74,1778415711.5897093,0.5785094,0.658514,0.23251356,1.1791227,0.46960264,-2.9206994
75,1778415711.599896,0.53082365,0.69412583,0.24025792,1.1888965,0.5395467,-2.9475775
76,1778415711.610021,0.5136885,0.6682707,0.22690348,1.1432343,0.6133087,-2.9483411
77,1778415711.620173,0.46319774,0.6487574,0.19019403,1.1169671,0.6400341,-2.9210048
78,1778415711.6303022,0.40581635,0.6404032,0.12866604,1.1623238,0.59513545,-2.8554895
79,1778415711.6405993,0.34934965,0.6491842,0.13080032,1.1991285,0.5213735,-2.7692049
80,1778415711.6507392,0.32977533,0.66723406,0.11909231,1.181108,0.5215262,-2.7420213
81,1778415711.6609545,0.32014063,0.70674855,0.1232389,1.0865766,0.5305365,-2.7386615
82,1778415711.6712224,0.19696271,0.6998579,0.058052167,0.99005985,0.6009387,-2.852588
83,1778415711.6813834,0.19696271,0.6998579,0.058052167,0.9949468,0.6189592,-2.983466
84,1778415711.6916168,0.13720313,0.65552604,0.025489293,1.0273226,0.6272059,-3.0242412
85,1778415711.7019086,-0.0014635,0.58180225,-0.082016975,1.2008084,0.31031954,-2.9541442
86,1778415711.712042,-0.0014635,0.58180225,-0.082016975,1.2008084,0.31031954,-2.9541442
87,1778415711.7221856,-0.02859923,0.5750945,-0.04634417,1.2498302,0.1966986,-2.8472428
88,1778415711.7323318,-0.039270584,0.60107166,0.040124293,1.1800389,0.22602014,-2.6873488
89,1778415711.7424457,-0.07658983,0.69693094,-0.05372265,0.85062987,0.46303585,-2.6458101
90,1778415711.7525527,-0.1211656,0.7066266,-0.10079856,0.763887,0.4454735,-2.6902506
91,1778415711.7626743,-0.166839,0.66662425,-0.13738607,0.71837753,0.34681875,-2.7033842
92,1778415711.7728157,-0.2215983,0.65784323,-0.17165637,0.75991637,0.15958855,-2.6832256
93,1778415711.7831125,-0.2648935,0.6443059,-0.14952092,0.75991637,0.15958855,-2.6832256
94,1778415711.7932203,-0.29337075,0.635159,-0.09098092,0.94806284,-0.24785857,-2.5486825
95,1778415711.8033226,-0.31166452,0.64644015,-0.051588375,0.9737192,-0.3155119,-2.5013404
96,1778415711.8134496,-0.33880025,0.6368055,-0.02268425,0.9109528,-0.32834008,-2.4492643
97,1778415711.8235996,-0.34782517,0.6227193,0.02262327,0.8078693,-0.27473664,-2.363743
98,1778415711.8337045,-0.34782517,0.6227193,0.02262327,0.8078693,-0.27473664,-2.363743
99,1778415711.8438447,-0.37276566,0.6466231,0.004573438,0.45066583,0.04932737,-2.1259637
100,1778415711.8539877,-0.39337662,0.64851344,-0.021098793,0.34025195,0.12110403,-2.0404427
101,1778415711.8642595,-0.42411014,0.64753777,-0.0307335,0.22403483,0.16752979,-1.921782
102,1778415711.874392,-0.4709421,0.65052575,-0.039331563,0.096516706,0.21777347,-1.8530598
103,1778415711.8844898,-0.49448007,0.6324759,-0.056649648,0.010537425,0.24358252,-1.8558086
104,1778415711.8946128,-0.5306407,0.6100356,-0.061223082,0.0076358155,0.2302962,-1.8887954
105,1778415711.9047258,-0.5638134,0.5603985,-0.058844898,0.055741455,0.22999077,-1.9260582
106,1778415711.9148328,-0.6111942,0.51557887,-0.050124876,0.09590584,0.23823744,-1.9226984
107,1778415711.924953,-0.6854668,0.4278908,-0.055186145,0.09590584,0.23823744,-1.9226984
108,1778415711.9350607,-0.7585198,0.36105764,-0.09970094,0.34376442,0.16218472,-1.4799738
109,1778415711.9452245,-0.8240725,0.3196528,-0.13525179,0.47494772,0.008399397,-1.1279627
110,1778415711.955337,-0.85297656,0.2845288,-0.14269125,0.5856671,-0.17165314,-0.7414377
111,1778415711.9654834,-0.85931844,0.28257746,-0.14263028,0.65576386,-0.28893927,-0.45723262
112,1778415711.975707,-0.8474884,0.2836141,-0.121775396,0.71868294,-0.3820962,-0.17165314
113,1778415711.9858124,-0.84023196,0.27727225,-0.13055639,0.7475463,-0.40393466,0.06536258
114,1778415711.9959779,-0.83273154,0.2561735,-0.18007149,0.7687739,-0.45463645,0.27183503
115,1778415712.0060878,-0.8216333,0.24885598,-0.19513334,0.79061234,-0.57650405,0.5920811
116,1778415712.0163167,-0.79809535,0.26788148,-0.17299789,0.78694713,-0.6740898,0.88193667
117,1778415712.0264244,-0.7651056,0.28501663,-0.12165344,0.7535023,-0.7075347,1.1917981
118,1778415712.0365384,-0.7651056,0.28501663,-0.12165344,0.7535023,-0.7075347,1.1917981
119,1778415712.0466895,-0.6802836,0.33093393,-0.044880666,0.4185954,-0.4014912,1.8562667
120,1778415712.056954,-0.6424155,0.34105647,-0.084029295,0.21273382,-0.25686884,2.053118
121,1778415712.0670729,-0.60375476,0.3403857,-0.14494748,0.10247265,-0.2489276,2.1852176
122,1778415712.0772007,-0.56210595,0.35733792,-0.19629194,0.123547494,-0.4118759,2.3315198
123,1778415712.0873244,-0.5253355,0.39148626,-0.17622979,0.26648995,-0.6224717,2.4338398
124,1778415712.0976117,-0.44825786,0.44033056,-0.09018819,0.5140431,-0.7974846,2.5448647
125,1778415712.1077218,-0.37715617,0.5032611,-0.030977417,0.7163922,-0.8032878,2.6456573
126,1778415712.1178613,-0.33209255,0.5315554,-0.0001829375,0.77488256,-0.7264715,2.7418687
127,1778415712.12799,-0.26794246,0.5681429,0.042136606,0.7405214,-0.57543504,2.8585439
128,1778415712.1381142,-0.23257454,0.5900954,0.07982173,0.52855116,-0.20525073,3.0387492
129,1778415712.1482315,-0.17177832,0.6104625,0.05079565,0.26526824,0.13041973,3.1972687
130,1778415712.1583512,-0.110189356,0.6487574,-0.026525937,0.10919216,0.3109304,3.2650747
131,1778415712.1684887,-0.04701494,0.7274205,-0.17903483,0.118202426,0.2939789,3.2075007
132,1778415712.178609,0.00042685418,0.7725451,-0.25928342,0.39385536,-0.042760566,3.0647109
133,1778415712.1887348,0.04164877,0.7848019,-0.20989029,0.6969972,-0.32788193,2.9707904
134,1778415712.1988587,0.08890763,0.77224016,-0.120007,1.0065532,-0.48273626,2.9601002
135,1778415712.208999,0.10037171,0.78449696,-0.07829725,1.1682798,-0.48487428,2.9987376
136,1778415712.2191367,0.14659391,0.80651045,-0.016281437,1.2886202,-0.3286455,3.0602822
137,1778415712.229279,0.15604569,0.81584024,0.013293459,1.2582297,-0.15851954,3.075401
138,1778415712.2393727,0.17366867,0.79736364,0.044453815,1.0424415,0.2406809,3.0966287
139,1778415712.249468,0.21824445,0.778704,-0.00085370836,0.59574634,0.75701475,3.1262555
140,1778415712.2596016,0.24702659,0.76681304,-0.08451713,0.25167647,1.0228939,3.145956
141,1778415712.2697024,0.29843205,0.7519341,-0.21647604,-0.12568553,1.1252137,3.1865785
142,1778415712.2798612,0.37813184,0.7391285,-0.24781933,-0.31581733,1.0273226,3.2826371
143,1778415712.2899904,0.42776886,0.75949556,-0.2695279,-0.33383787,0.8669705,3.3903022
144,1778415712.300111,0.46490517,0.8227919,-0.2822116,-0.11942416,0.54993147,3.428023
145,1778415712.310221,0.5130178,0.8487081,-0.22031774,0.24816401,0.22937989,3.3834298
146,1778415712.3203719,0.5388729,0.8624893,-0.14019111,0.49434268,0.114689946,3.3110423
147,1778415712.3304844,0.5543006,0.8757828,-0.090737,0.6000224,0.15393804,3.1902437
148,1778415712.3406162,0.5543006,0.8757828,-0.090737,0.6000224,0.15393804,3.1902437
149,1778415712.3507843,0.57978994,0.87724626,-0.059698608,0.11010846,0.6907359,2.8863382
150,1778415712.3610008,0.6299758,0.7732768,-0.11183579,-0.23579398,0.9097311,2.85946
151,1778415712.3713086,0.65503824,0.6961991,-0.1367153,-0.625526,1.0891727,2.9604056
152,1778415712.3814142,0.66461194,0.6479037,-0.14909407,-0.8556695,1.1496484,3.2136095
153,1778415712.3916776,0.6916867,0.63125634,-0.17781526,-0.8923214,1.104139,3.4475708
154,1778415712.4017797,0.7052241,0.6492452,-0.20617057,-0.8017606,0.9660834,3.6176968
155,1778415712.4120748,0.81803554,0.7753501,-0.22147635,-0.5534439,0.6403395,3.6453383
156,1778415712.422368,0.8709045,0.857733,-0.20952442,-0.4025602,0.4729624,3.4246633
157,1778415712.432518,0.9085896,0.8991378,-0.19629194,-0.32162055,0.3735441,3.0822732
158,1778415712.442655,0.8948083,0.8450493,-0.20275573,-0.3034473,0.2780964,2.6525297
159,1778415712.4528847,0.9526166,0.6137553,-0.056100838,-0.31856623,0.19853121,2.5143213
160,1778415712.4630115,0.9288347,0.56802094,-0.020245085,-0.38163805,0.3098614,2.693763
161,1778415712.4731429,0.9024917,0.5329579,-0.007744354,-0.44638976,0.39354995,2.8535042
162,1778415712.483273,0.9001745,0.50429773,0.023050126,-0.5563455,0.5183192,3.0653217
163,1778415712.49338,0.9615805,0.5373484,0.013415418,-0.71685034,0.6627888,3.1772628
164,1778415712.503514,1.0759774,0.6779664,-0.07250423,-0.8549059,0.691194,3.0709722
165,1778415712.513636,1.1270779,0.769801,-0.20848778,-0.93599826,0.5143485,2.70934
166,1778415712.5237484,1.1270779,0.769801,-0.20848778,-0.93599826,0.5143485,2.70934
167,1778415712.5338473,1.1008569,0.65229416,-0.23787974,-0.4552473,-0.37507126,2.041359
168,1778415712.5439737,1.1008569,0.65229416,-0.23787974,-0.4552473,-0.37507126,2.041359
169,1778415712.554211,1.044878,0.46356362,-0.05799119,0.49174652,-1.1242975,1.9536998
170,1778415712.564482,1.018535,0.41209725,0.043600105,0.7133379,-1.141249,2.0480785
171,1778415712.5746014,0.9978631,0.35087416,0.124336526,0.7199047,-0.93859446,2.2220223
172,1778415712.5848532,1.0091443,0.3420931,0.13793488,0.49449542,-0.5815437,2.3936756
173,1778415712.5949848,1.0621961,0.4165487,0.0954324,0.13439035,-0.20448714,2.4381158
174,1778415712.605085,1.0903075,0.4686249,0.051771317,-0.16233744,0.06490443,2.332589
175,1778415712.615459,1.0903075,0.4686249,0.051771317,-0.16233744,0.06490443,2.332589
176,1778415712.6255956,1.1323831,0.36746046,-0.06695513,-0.5919284,0.38805214,2.1270328
177,1778415712.6357703,1.1323831,0.36746046,-0.06695513,-0.5919284,0.38805214,2.1270328
178,1778415712.6458826,1.1337247,0.33069003,-0.16257046,-0.5403103,0.26710084,2.1470387
179,1778415712.656003,1.132627,0.275138,-0.1612899,0.010995574,-0.42210788,2.2348504
180,1778415712.6661174,1.1382982,0.26647896,-0.095066525,0.19486602,-0.5884159,2.2864685
181,1778415712.6762538,1.1876303,0.32117727,-0.015854584,0.21166481,-0.56673026,2.2569942
182,1778415712.6863723,1.2251934,0.3934376,0.055613004,0.08781188,-0.3912592,2.1325307
183,1778415712.6965733,1.2631835,0.3817296,0.05213719,-0.20082195,-0.09056077,1.9620992
184,1778415712.706691,1.2915388,0.36398467,-0.016464375,-0.40943244,0.0926988,1.8579466
185,1778415712.7169113,1.2770867,0.360021,-0.06988213,-0.5510005,0.15851954,1.7432567
186,1778415712.7270317,1.2925754,0.33026317,-0.080492504,-0.58108556,0.13332134,1.6615535
187,1778415712.7372615,1.3037956,0.34587383,-0.07817529,-0.5468771,0.06307184,1.6000088
188,1778415712.7474098,1.3037956,0.34587383,-0.07817529,-0.5468771,0.06307184,1.6000088
189,1778415712.7575033,1.2970879,0.37136313,0.015549688,-0.41981715,-0.06780604,1.4051428
190,1778415712.7677822,1.3051372,0.3860591,0.059698608,-0.38652498,-0.01863139,1.2996159
191,1778415712.7778962,1.3042834,0.42606148,0.066772185,-0.39385536,0.10797043,1.0980303
192,1778415712.788024,1.2978196,0.44502598,0.038477857,-0.41584653,0.17440203,0.9245446
193,1778415712.7981408,1.2978196,0.44502598,0.038477857,-0.41584653,0.17440203,0.9245446
194,1778415712.8084192,1.2605003,0.40648714,-0.0064028124,-0.3923282,0.19822577,0.59406644
195,1778415712.8185349,1.2325718,0.3840468,-0.016403396,-0.32589662,0.16890424,0.47219884
196,1778415712.8286536,1.2257423,0.37282664,-0.019696271,-0.26740626,0.13729197,0.39568797
197,1778415712.8387544,1.2130586,0.37624148,-0.025001459,-0.18967366,0.08979719,0.29825497
198,1778415712.8488698,1.2008628,0.37483895,-0.016220458,-0.12782355,0.054367006,0.19837849
199,1778415712.8589964,1.1862887,0.36605796,-0.005854,-0.088728175,0.055436023,0.105068825
200,1778415712.8691103,1.173666,0.36075276,-0.0009146876,-0.0664316,0.07819075,0.024129177
201,1778415712.8793316,1.1614702,0.35880142,0.0020123124,-0.06566802,0.10705414,-0.037110064
202,1778415712.889465,1.156043,0.35874045,-0.014452063,-0.0759,0.14446963,-0.11759156
203,1778415712.899624,1.1529942,0.3582526,-0.03585575,-0.07788532,0.14446963,-0.19715676
204,1778415712.9097476,1.1509818,0.35483778,-0.039758418,-0.07269296,0.12629639,-0.26816985
205,1778415712.9199522,1.1578724,0.34995946,-0.030977417,-0.07192938,0.1142318,-0.3184135
206,1778415712.9300663,1.1769589,0.3523986,-0.01841571,-0.074830994,0.116675265,-0.36117408
207,1778415712.9401855,1.1955576,0.36752144,-0.002500146,-0.099571034,0.12996158,-0.42088616
208,1778415712.950319,1.2128147,0.39093745,0.02207446,-0.14874569,0.17730364,-0.515723
209,1778415712.9605029,1.2270228,0.40752378,0.02872119,-0.20662516,0.24877487,-0.6386596
210,1778415712.9706156,1.2368405,0.42020744,0.031038398,-0.2454151,0.30925053,-0.7849618
211,1778415712.9807162,1.2387918,0.41435343,0.035489876,-0.25977045,0.3707952,-0.9279043
212,1778415712.9908495,1.2387308,0.39679146,0.034087352,-0.26160303,0.41538838,-1.0245737
213,1778415713.0010638,1.244036,0.38996178,0.026343001,-0.27107146,0.4382958,-1.1247556
214,1778415713.0112941,1.2562319,0.3919131,0.026769854,-0.28405234,0.43233988,-1.2127203
215,1778415713.0214012,1.2553172,0.39776713,0.02872119,-0.27779096,0.39599338,-1.4159856
216,1778415713.0315354,1.2572684,0.40606028,0.034941066,-0.27779096,0.39599338,-1.4159856
217,1778415713.041646,1.2564148,0.41093862,0.048051585,-0.2509129,0.3837761,-1.5128077
218,1778415713.0517662,1.258488,0.4119753,0.07482144,-0.20265454,0.44135013,-1.6943874
219,1778415713.0619037,1.2595247,0.42709813,0.075675145,-0.20937407,0.49449542,-1.7860173
220,1778415713.0721333,1.2595247,0.42709813,0.075675145,-0.20937407,0.49449542,-1.7860173
221,1778415713.0822978,1.2595247,0.42856157,0.07957781,-0.24510968,0.56092703,-1.8797851
222,1778415713.092413,1.2208029,0.44167212,0.03683142,-0.2857322,0.59971696,-2.0861049
223,1778415713.1025262,1.2208029,0.44167212,0.03683142,-0.24449882,0.5476407,-2.175902
224,1778415713.1126661,1.1667144,0.40764573,0.050856624,-0.16890424,0.49403727,-2.2293527
225,1778415713.122768,1.1384811,0.4159389,0.049454104,-0.11362094,0.46838093,-2.2605069
226,1778415713.1329892,1.1384811,0.4159389,0.049454104,-0.11362094,0.46838093,-2.2605069
227,1778415713.1432238,1.1087233,0.41789025,0.04616123,-0.00290161,0.4027129,-2.3228152
228,1778415713.1533298,1.0718309,0.4267322,0.070065066,0.13179417,0.3379612,-2.3892467
229,1778415713.1634312,1.0578667,0.43313503,0.09781059,0.1572978,0.35476,-2.408947
230,1778415713.1735227,1.0578667,0.43313503,0.09781059,0.1572978,0.35476,-2.408947
231,1778415713.1836534,1.0180472,0.43423265,0.12665373,0.098807454,0.5564982,-2.4204009
232,1778415713.1937783,1.0292064,0.43075684,0.1232389,0.040317107,0.6545421,-2.3803892
233,1778415713.2038846,1.030609,0.4633807,0.09043211,-0.011911872,0.75609845,-2.3382394
234,1778415713.2140412,1.0260355,0.5013097,0.041587792,0.005955936,0.72341716,-2.3420575
235,1778415713.2241535,1.0391461,0.5455806,0.017927876,0.08277224,0.6096435,-2.3649647
236,1778415713.234258,1.0201814,0.5704601,0.01975725,0.08277224,0.6096435,-2.3649647
237,1778415713.24436,1.0201814,0.5704601,0.01975725,0.39400807,0.2967278,-2.4701862
238,1778415713.2544599,1.0148762,0.6057671,0.10811607,0.5578727,0.18371773,-2.512336
239,1778415713.2645638,1.012681,0.6170482,0.14067894,0.5710063,0.19318613,-2.5442538
240,1778415713.2746787,0.9962167,0.6404642,0.15324064,0.49113566,0.2864958,-2.5885415
241,1778415713.2847989,0.9810938,0.649733,0.15226498,0.34574974,0.41996986,-2.638327
242,1778415713.2949033,0.968837,0.6507087,0.13720313,0.18600847,0.5174029,-2.6610818
243,1778415713.3050268,0.9517019,0.6652827,0.115799434,0.12186762,0.5707009,-2.6798658
244,1778415713.3151386,0.9448112,0.68863773,0.09134679,0.11178834,0.57558775,-2.7116308
245,1778415713.325254,0.9223709,0.70717543,0.085004956,0.129198,0.5332854,-2.7644706
246,1778415713.335382,0.8995037,0.7096146,0.09287128,0.14569137,0.49464813,-2.7989845
247,1778415713.3455043,0.8757828,0.70918775,0.11775078,0.15286903,0.47891834,-2.8040242
248,1778415713.3556323,0.85285467,0.7277254,0.11092111,0.15515977,0.48243082,-2.8174632
249,1778415713.365761,0.85285467,0.7277254,0.11092111,0.15515977,0.48243082,-2.8174632
250,1778415713.3759081,0.81010824,0.8091326,0.10378654,0.15241088,0.42821655,-2.9361238
251,1778415713.386022,0.7789479,0.79992473,0.11073817,0.16462818,0.4147775,-3.0402763
252,1778415713.3962765,0.74144566,0.7702888,0.1290929,0.1797471,0.4111123,-3.1065552
253,1778415713.4064074,0.6862595,0.7634592,0.11958014,0.28008172,0.42256603,-3.1516066
254,1778415713.4167068,0.64735484,0.7664472,0.12945877,0.3390302,0.42103887,-3.1876476
255,1778415713.4268816,0.58503413,0.7562637,0.14287418,0.36926803,0.45830166,-3.2307136
256,1778415713.4370089,0.51576185,0.72613996,0.1428132,0.3849978,0.5160284,-3.26874
257,1778415713.4472516,0.4531362,0.65790427,0.13323948,0.40500367,0.57986385,-3.2381966
258,1778415713.457376,0.36331388,0.62869525,0.11775078,0.4185954,0.6365216,-3.1343496
259,1778415713.4675949,0.28641915,0.60716957,0.050063897,0.47876564,0.6398814,-3.0602822
260,1778415713.4777057,0.28879735,0.58911973,0.045734376,0.513585,0.5335908,-2.9029844
261,1778415713.4878273,0.24202631,0.6018644,0.04634417,0.50991976,0.4961753,-2.7621799
262,1778415713.4979613,0.22446433,0.61991423,0.04049017,0.49495357,0.45769078,-2.65818
263,1778415713.5081208,0.21550037,0.6530869,0.0787241,0.41874814,0.48349985,-2.5410466
264,1778415713.5182536,0.17379062,0.681991,0.11177482,0.30497447,0.6337727,-2.477364
265,1778415713.528536,0.1411058,0.69997984,0.090371124,0.23548855,0.77518797,-2.470339
266,1778415713.5386593,0.099457026,0.69266236,0.05408852,0.20219639,0.8706357,-2.464994
267,1778415713.5489087,0.03518498,0.6579652,6.0979168e-05,0.19532417,0.90209526,-2.434298
268,1778415713.559038,0.0015244792,0.61399925,-0.08024859,0.27214047,0.8052731,-2.347097
269,1778415713.5693843,-0.0190255,0.6251584,-0.10360361,0.36713,0.5647449,-2.1697934
270,1778415713.5797,-0.011098208,0.65930676,-0.08878566,0.41248676,0.34865135,-1.9967657
271,1778415713.5898106,0.012805625,0.7218104,-0.022562291,0.37659842,0.25121832,-1.8753563
272,1778415713.5999582,-0.01841571,0.8130962,0.027562585,0.28817567,0.31566462,-1.9013181
273,1778415713.6101754,-0.025184397,0.8204137,0.035794772,0.22831088,0.44012842,-2.0265455
274,1778415713.620311,-0.04908823,0.79510736,0.040429186,0.15347989,0.5804747,-2.0635028
275,1778415713.6305723,-0.097200796,0.78236276,-0.016220458,0.116217114,0.6722572,-2.0911446
276,1778415713.6407502,-0.140496,0.7622396,-0.088419795,0.10369437,0.6409504,-2.1131356
277,1778415713.6509936,-0.16848545,0.73101825,-0.11439692,0.118966006,0.5010622,-2.0767891
278,1778415713.6611986,-0.22690348,0.73546976,-0.09817646,0.22983804,0.17241672,-1.9608774
279,1778415713.671424,-0.22690348,0.73546976,-0.09817646,0.22983804,0.17241672,-1.9608774
280,1778415713.6815195,-0.27300373,0.7560807,-0.06793079,0.3277292,0.012675454,-1.8936822
281,1778415713.6916268,-0.28702894,0.752178,-0.055247124,0.34223726,-0.02367103,-1.8779525
282,1778415713.701795,-0.28702894,0.752178,-0.055247124,0.34223726,-0.02367103,-1.8779525
283,1778415713.7119236,-0.31575012,0.7556538,-0.04494165,0.2939789,-0.014813482,-1.8651243
284,1778415713.7220232,-0.34648362,0.731811,-0.039331563,0.11056661,0.053603426,-1.8069394
285,1778415713.732273,-0.34648362,0.731811,-0.039331563,0.11056661,0.053603426,-1.8069394
286,1778415713.7424827,-0.3875226,0.7401042,-0.06451596,-0.018784106,0.10751228,-1.7835737
287,1778415713.7526069,-0.41020685,0.734677,-0.102810875,-0.093004234,0.06688975,-1.7950275
288,1778415713.7627275,-0.42825672,0.720042,-0.10165227,-0.0571159,-0.052687127,-1.7687603
289,1778415713.772831,-0.4856381,0.7215665,-0.082016975,0.24663684,-0.36193767,-1.6646078
290,1778415713.7829201,-0.49722412,0.7177858,-0.05469831,0.37384954,-0.47235155,-1.6120734
291,1778415713.793125,-0.5146032,0.7066266,-0.027806502,0.47357327,-0.52473325,-1.5496124
292,1778415713.8032277,-0.5363728,0.7081511,0.009207855,0.53038377,-0.5334381,-1.4535538
293,1778415713.8134809,-0.5363728,0.7081511,0.009207855,0.53038377,-0.5334381,-1.4535538
294,1778415713.8236053,-0.567838,0.6838814,0.05713748,0.4147775,-0.29031372,-1.2696834
295,1778415713.8337092,-0.59430295,0.67363685,0.03640456,0.2846632,-0.08827003,-1.1775955
296,1778415713.8438144,-0.6252804,0.6530869,-0.01103723,0.15149458,0.054825157,-1.1038336
297,1778415713.8539157,-0.6252804,0.6530869,-0.01103723,0.15149458,0.054825157,-1.1038336
298,1778415713.864123,-0.7010775,0.5686307,-0.111896776,0.022907447,0.09056077,-0.8846856
299,1778415713.874251,-0.7310793,0.5286284,-0.13976426,0.030848695,0.017104227,-0.77106464
300,1778415713.884539,-0.7712035,0.49551672,-0.1598264,0.08002335,-0.13026701,-0.6151413
301,1778415713.8946593,-0.79852223,0.45167267,-0.15122834,0.17165314,-0.30680707,-0.44623706
302,1778415713.9048963,-0.81266934,0.42392716,-0.13445906,0.26526824,-0.45570546,-0.22357668
303,1778415713.9149973,-0.82071865,0.40648714,-0.09201756,0.3203988,-0.5366451,-0.003970624
304,1778415713.92511,-0.8142548,0.4065481,-0.06768687,0.3203988,-0.5366451,-0.003970624
305,1778415713.9352174,-0.77791125,0.43240327,-0.02859923,0.33643404,-0.547488,0.5207626
306,1778415713.9453208,-0.73693323,0.4591731,-0.02695279,0.31306845,-0.5158757,0.82818055
307,1778415713.95542,-0.69540644,0.5025293,-0.023476979,0.31306845,-0.5158757,0.82818055
308,1778415713.9655128,-0.6610752,0.5405803,-0.0034148335,0.1656972,-0.4437936,1.3411547
309,1778415713.9757488,-0.6091819,0.573753,0.0248795,0.02076942,-0.3126103,1.4566082
310,1778415713.9858809,-0.5843634,0.5775947,0.016525354,-0.10048734,-0.18417588,1.4935656
311,1778415713.996112,-0.56942344,0.5711919,-0.013659334,-0.20525073,-0.10644327,1.5399913
312,1778415714.0062492,-0.5633255,0.5579594,-0.050063897,-0.2096795,-0.14492778,1.6035212
313,1778415714.016428,-0.54777586,0.55015403,-0.053966567,-0.12660182,-0.2237294,1.7041613
314,1778415714.0265515,-0.52033526,0.5700942,-0.042075627,0.043066,-0.35369098,1.8822285
315,1778415714.036897,-0.49393123,0.5925346,-0.028660208,0.1591304,-0.41813725,2.002111
316,1778415714.0470695,-0.49393123,0.5925346,-0.028660208,0.1591304,-0.41813725,2.002111
317,1778415714.0571935,-0.36008197,0.71351725,0.06299148,0.33857206,-0.39736784,2.3501513
318,1778415714.0673246,-0.3081887,0.74864125,0.09713981,0.23090707,-0.20738874,2.3883305
319,1778415714.077675,-0.27788207,0.7641909,0.10031073,0.04046982,0.04337143,2.3648121
320,1778415714.0878174,-0.2561735,0.769923,0.063235395,-0.13103059,0.24083363,2.3252585
321,1778415714.0979877,-0.23031832,0.7566295,-0.01603752,-0.31138855,0.36117408,2.2979224
322,1778415714.108117,-0.2160492,0.7452874,-0.07390675,-0.36713,0.32895094,2.3154848
323,1778415714.118234,-0.19190145,0.7422384,-0.11628727,-0.3239113,0.15745051,2.378404
324,1778415714.1283607,-0.15531394,0.7505316,-0.12086072,-0.19914207,-0.09285152,2.496759
325,1778415714.1384745,-0.13622746,0.7685205,-0.11183579,-0.110872045,-0.25366178,2.5738807
326,1778415714.148595,-0.09884723,0.80712026,-0.05866196,0.058490347,-0.46929723,2.6502388
327,1778415714.158698,-0.039392542,0.84230524,0.014330104,0.23044892,-0.548557,2.6642888
328,1778415714.1688218,-0.001097625,0.86913604,0.050978586,0.27152961,-0.47403142,2.6015224
329,1778415714.1790044,0.038355898,0.8696239,0.050856624,0.21700987,-0.36285394,2.538756
330,1778415714.1891284,0.07097975,0.85883063,0.039087646,0.056046885,-0.20158553,2.4817927
331,1778415714.1992555,0.08250481,0.8354146,0.01975725,-0.11209377,-0.075289145,2.4591908
332,1778415714.2093797,0.10518907,0.8041323,-0.010793312,-0.3100141,0.010231993,2.5126414
333,1778415714.2196755,0.11543357,0.7904729,-0.003963646,-0.474795,0.0364992,2.6416867
334,1778415714.2298071,0.12958074,0.78657025,0.0038416875,-0.56321776,0.06246097,2.7661505
335,1778415714.240066,0.13689823,0.7841311,0.008171208,-0.57543504,0.056505036,2.8739684
336,1778415714.2501922,0.15299673,0.79193646,0.008110229,-0.54336464,0.02977968,2.9469666
337,1778415714.260444,0.18025441,0.8182185,-0.004817354,-0.45891252,-0.02733622,2.9399416
338,1778415714.2705948,0.25135612,0.8361463,-0.027074749,-0.37659842,-0.129198,2.855795
339,1778415714.2808456,0.32837284,0.8434029,-0.031770147,-0.3313944,-0.24770586,2.718045
340,1778415714.2909994,0.36258212,0.8570622,-0.01695221,-0.32421672,-0.311694,2.6212227
341,1778415714.3011446,0.37532678,0.84193933,0.0035367915,-0.30024028,-0.35888332,2.4998133
342,1778415714.3113039,0.39880377,0.796144,0.026099084,-0.2593123,-0.3903429,2.4810293
343,1778415714.321614,0.39801103,0.76559347,0.077382565,-0.18677205,-0.35827246,2.5573874
344,1778415714.3319159,0.3819735,0.75047064,0.093054205,-0.16172658,-0.29810223,2.6013696
345,1778415714.3420494,0.415695,0.7217494,0.123299874,-0.20693061,-0.14935656,2.7230844
346,1778415714.3522534,0.44008666,0.70619977,0.13153206,-0.31429017,0.01160644,2.8174632
347,1778415714.3624167,0.5739969,0.76041025,-0.004024625,-0.5143485,0.08628472,2.9100094
348,1778415714.3727252,0.6354029,0.7812651,-0.015061854,-0.57604593,-0.029168816,2.8615983
349,1778415714.3828318,0.6719294,0.78175294,-0.018171793,-0.57528234,-0.16554448,2.7782152
350,1778415714.3929856,0.6719294,0.78175294,-0.018171793,-0.57528234,-0.16554448,2.7782152
351,1778415714.403117,0.6946747,0.76815456,0.04170975,-0.35353827,-0.37293324,2.6288586
352,1778415714.4133341,0.673332,0.749251,0.07012604,-0.19425514,-0.41493022,2.567161
353,1778415714.423438,0.65814817,0.6951625,0.084578104,-0.06719518,-0.40958515,2.5378397
354,1778415714.4335773,0.65814817,0.6951625,0.084578104,-0.06719518,-0.40958515,2.5378397
355,1778415714.4438667,0.6649168,0.65814817,0.08335852,-0.02687807,-0.38805214,2.5520422
356,1778415714.4541376,0.72851807,0.64583033,0.044758707,-0.026419923,-0.37232238,2.58396
357,1778415714.4642622,0.84200037,0.65546507,0.027257688,-0.18768835,-0.47403142,2.5303566
358,1778415714.4743655,0.9342618,0.62424374,0.059698608,-0.2667954,-0.51343226,2.5335636
359,1778415714.4845312,0.9696297,0.64820856,0.102688916,-0.3222314,-0.48655418,2.5537221
360,1778415714.4946666,0.95127505,0.68186903,0.12494631,-0.31627548,-0.41416663,2.5060747
361,1778415714.5047872,0.91462654,0.6711367,0.1042134,-0.24633141,-0.33383787,2.4051292
362,1778415714.514922,0.87877077,0.65936774,0.063540295,-0.064599,-0.35903606,2.2820399
363,1778415714.5250578,0.8492569,0.6466841,0.021891521,0.15454891,-0.44348818,2.172084
364,1778415714.5351794,0.8492569,0.6466841,0.021891521,0.15454891,-0.44348818,2.172084
365,1778415714.5453124,0.904443,0.58168024,-0.026038107,0.48243082,-0.6962337,1.8698585
366,1778415714.5554447,0.904443,0.58168024,-0.026038107,0.48243082,-0.6962337,1.8698585
367,1778415714.5655408,1.0549396,0.4431966,0.011647021,0.47418416,-0.95539325,2.0360138
368,1778415714.5756674,1.0986006,0.46179524,0.057625312,0.45845437,-0.957684,2.172084
369,1778415714.5857863,1.0995764,0.52966505,0.120921694,0.4466952,-0.84299403,2.260354
370,1778415714.595912,1.0842706,0.56924057,0.15622863,0.43676865,-0.6440047,2.2375994
371,1778415714.6060355,1.068233,0.56924057,0.16019227,0.39675698,-0.31566462,2.1711679
372,1778415714.6161687,1.068233,0.56924057,0.16019227,0.39675698,-0.31566462,2.1711679
373,1778415714.626293,1.0496954,0.57155776,0.0746385,0.10827587,0.2527455,1.9790506
374,1778415714.6364152,1.050793,0.5352141,-0.07012604,-0.07223482,0.37782016,1.8133535
375,1778415714.646538,1.0540249,0.5017976,-0.1861694,-0.09850202,0.2489276,1.6826283
376,1778415714.6566434,1.07427,0.42947626,-0.28507763,0.053297993,-0.18860464,1.5960382
377,1778415714.6667578,1.1683608,0.33684894,-0.24983165,0.2910773,-0.75670934,1.6870571
378,1778415714.6768806,1.2131195,0.3595332,-0.08524887,0.48991394,-1.0905472,1.8692477
379,1778415714.6870174,1.2139733,0.43776944,0.03152623,0.53893584,-1.0896308,1.9237673
380,1778415714.6972988,1.2136683,0.49063838,0.13921544,0.43569964,-0.85994554,1.8933768
381,1778415714.7074947,1.2136683,0.5370435,0.20312162,0.17623462,-0.42913285,1.7779233
382,1778415714.7176118,1.2091559,0.56917953,0.1733028,-0.18799378,0.093767814,1.5609134
383,1778415714.72785,1.1839715,0.5515566,0.12287302,-0.49495357,0.4343252,1.3613132
384,1778415714.7379653,1.1667753,0.48655275,0.031892106,-0.7707592,0.69134676,1.1614076
385,1778415714.7481008,1.1554333,0.42984214,-0.05768629,-0.82863873,0.71578133,1.0629056
386,1778415714.7582688,1.1246997,0.38051,-0.13610551,-0.70188415,0.5004513,1.0062478
387,1778415714.768551,1.1098819,0.33855635,-0.1542773,-0.44806966,0.122783914,1.0117456
388,1778415714.778674,1.1256754,0.33764166,-0.12122658,-0.17592919,-0.2695443,1.0464121
389,1778415714.7888513,1.1472011,0.38209546,-0.034514207,0.02275473,-0.54199016,1.0464121
390,1778415714.7989743,1.1638484,0.4237442,0.055186145,0.09819659,-0.59788436,0.9868528
391,1778415714.8091056,1.1715927,0.4355742,0.12659276,0.09056077,-0.4700608,0.875828
392,1778415714.8192716,1.16769,0.430208,0.13732508,-0.015882496,-0.23426682,0.7646506
393,1778415714.8295207,1.1557992,0.41356072,0.099518,-0.14905111,-0.01282817,0.66599584
394,1778415714.8396528,1.150677,0.39307174,0.06854059,-0.24480425,0.13591751,0.5862779
395,1778415714.8497844,1.1529942,0.38569325,0.0471369,-0.2764165,0.20723604,0.5439755
396,1778415714.8599162,1.1507988,0.3758756,0.008781,-0.30940324,0.26526824,0.48197266
397,1778415714.870088,1.1437863,0.36752144,-0.02713573,-0.31612277,0.24129178,0.42821655
398,1778415714.880225,1.1364079,0.36947277,-0.042197585,-0.2929099,0.14462234,0.37888917
399,1778415714.890504,1.124273,0.37532678,-0.030977417,-0.24205536,0.031001411,0.3182608
400,1778415714.9007232,1.1190287,0.38270527,-0.011098208,-0.18845193,-0.034513887,0.25396723
401,1778415714.9109416,1.1089672,0.38374192,0.016708292,-0.12522738,-0.06627888,0.16890424
402,1778415714.9212153,1.1002471,0.37057042,0.029940773,-0.094225965,-0.059253927,0.1049161
403,1778415714.9313314,1.0875634,0.35160586,0.036892395,-0.08384126,-0.030390546,0.041233405
404,1778415714.9414997,1.0870756,0.33989787,0.037929043,-0.094989546,0.0035124752,-0.0038179078
405,1778415714.951788,1.0841485,0.33306822,0.042868353,-0.10720685,0.034972034,-0.030695979
406,1778415714.9618902,1.0777458,0.32818988,0.038538832,-0.110872045,0.08078693,-0.061086524
407,1778415714.9719934,1.0831729,0.3369709,0.038477857,-0.100029185,0.11560625,-0.08445212
408,1778415714.9820945,1.0894538,0.3559354,0.02128173,-0.10293079,0.17592919,-0.16752979
409,1778415714.992202,1.1011008,0.35642326,0.011525063,-0.10293079,0.17592919,-0.16752979
410,1778415715.002306,1.1098819,0.36276507,0.014878917,-0.13439035,0.16157386,-0.28221974
411,1778415715.012409,1.118236,0.37008256,0.02207446,-0.13637567,0.15195273,-0.35445455
412,1778415715.02251,1.1294562,0.3691069,0.03225798,-0.13103059,0.14584407,-0.41080686
413,1778415715.0326371,1.1294562,0.3691069,0.03225798,-0.13103059,0.14584407,-0.41080686
414,1778415715.0429862,1.1359199,0.37057042,0.0482955,-0.124311075,0.16157386,-0.47571132
415,1778415715.0532317,1.1369566,0.37307054,0.057503358,-0.13057245,0.19410244,-0.52687126
416,1778415715.063368,1.1429935,0.37990022,0.08567573,-0.16249016,0.24617869,-0.5888741
417,1778415715.0736203,1.1459205,0.39112037,0.09043211,-0.20387627,0.3126103,-0.64476824
418,1778415715.0838487,1.1498232,0.409658,0.08250481,-0.2415972,0.39721513,-0.70295316
419,1778415715.0940907,1.1502501,0.41691455,0.06884548,-0.26068676,0.49739704,-0.8518516
420,1778415715.1042962,1.1424447,0.42081723,0.06402813,-0.23716843,0.5021312,-0.93523467
421,1778415715.114415,1.1302489,0.4188659,0.06457694,-0.21120666,0.505491,-1.0016663
422,1778415715.1245754,1.1214069,0.4105727,0.05780825,-0.17440203,0.48365256,-1.0754282
423,1778415715.1346898,1.1087842,0.41160935,0.0646989,-0.15424347,0.47021353,-1.1136073
424,1778415715.1448216,1.100552,0.42087823,0.06610142,-0.13164146,0.4653266,-1.1468995
425,1778415715.1549273,1.097625,0.42819571,0.06896744,-0.10644327,0.46746463,-1.1838568
426,1778415715.1651318,1.097625,0.42819571,0.06896744,-0.10644327,0.46746463,-1.1838568
427,1778415715.1752353,1.0961615,0.4510629,0.05866196,-0.08628472,0.49632803,-1.249983
428,1778415715.1854732,1.0878685,0.46228305,0.054210484,-0.08674286,0.5012149,-1.2990049
429,1778415715.1955953,1.0845145,0.46764925,0.060552314,-0.10308351,0.50243664,-1.3501649
430,1778415715.2057087,1.0894538,0.4696006,0.0687845,-0.12644911,0.5193882,-1.3927728
431,1778415715.2158399,1.0807338,0.48423555,0.06872352,-0.15241088,0.53038377,-1.4475979
432,1778415715.2259574,1.0709771,0.48862606,0.07311402,-0.1685988,0.5401576,-1.4950926
433,1778415715.236083,1.0676233,0.4852722,0.08335852,-0.18219055,0.54626626,-1.5230398
434,1778415715.2462234,1.0531102,0.48143053,0.10726235,-0.20662516,0.581391,-1.5558738
435,1778415715.2563562,1.0501832,0.47313735,0.104396336,-0.22708915,0.6261369,-1.575116
436,1778415715.2665017,1.0501832,0.47313735,0.104396336,-0.22708915,0.6261369,-1.575116
437,1778415715.27661,1.0398778,0.50380987,0.078480184,-0.15653422,0.5375614,-1.6297885
438,1778415715.2867274,1.0375606,0.52234757,0.097871564,-0.06307184,0.44776422,-1.690875
439,1778415715.296889,1.0485368,0.5438732,0.1302515,0.024281893,0.38224894,-1.7713565
440,1778415715.3069954,1.0468293,0.55466646,0.17641273,0.0804815,0.3866777,-1.8501581
441,1778415715.3172586,1.0367678,0.54741,0.20714624,0.09972375,0.4372268,-1.9042196
442,1778415715.3273914,1.0378654,0.5348483,0.23836756,0.106137834,0.5468771,-1.9272798
443,1778415715.3374941,1.0208522,0.5465563,0.23928225,0.09590584,0.6844745,-1.9466748
444,1778415715.34768,1.010059,0.5547885,0.22763525,0.082619525,0.7496844,-1.9659171
445,1778415715.357793,0.9988388,0.559179,0.2145247,0.047800206,0.8355109,-1.9874501
446,1778415715.3681781,0.9738983,0.57131386,0.19458452,-0.010231993,0.9069822,-2.0124955
447,1778415715.3782895,0.9621293,0.5771678,0.18677919,-0.05375614,0.93126404,-2.0157025
448,1778415715.3884609,0.95231164,0.597169,0.16824152,-0.069791354,0.91690874,-2.0289888
449,1778415715.3985682,0.93237144,0.6219875,0.1589117,-0.011148291,0.8562804,-2.0676262
450,1778415715.4086962,0.9156632,0.64680606,0.1325687,0.08964448,0.7640397,-2.127491
451,1778415715.4190154,0.9012111,0.64052516,0.16086306,0.24190263,0.57986385,-2.2015584
452,1778415715.4291868,0.90438205,0.63918364,0.20464608,0.28145617,0.53023106,-2.217899
453,1778415715.4393988,0.87931955,0.6621728,0.25227082,0.24037547,0.57864213,-2.234545
454,1778415715.449516,0.872124,0.66955125,0.26440567,0.18112154,0.6429357,-2.244777
455,1778415715.4596364,0.8444395,0.6866255,0.27952853,0.079870634,0.782213,-2.2742512
456,1778415715.469968,0.80968136,0.69247943,0.25092927,0.01817324,0.90667677,-2.3199134
457,1778415715.4801528,0.7823017,0.6866255,0.23787974,0.029168816,0.91874135,-2.32984
458,1778415715.4903932,0.7544952,0.7011995,0.22574489,0.11148291,0.89888823,-2.3367124
459,1778415715.500825,0.7544952,0.7011995,0.22574489,0.11148291,0.89888823,-2.3367124
460,1778415715.510915,0.68705225,0.71876144,0.18598646,0.5019785,0.5578727,-2.4990497
461,1778415715.52107,0.68705225,0.71876144,0.18598646,0.5019785,0.5578727,-2.4990497
462,1778415715.5314448,0.6342443,0.7501047,0.23562351,0.6478226,0.45341474,-2.5337162
463,1778415715.5415108,0.6082062,0.7390065,0.28446782,0.72158456,0.48426342,-2.5735753
464,1778415715.5516376,0.57131386,0.7332135,0.31477445,0.7102836,0.61346143,-2.5781567
465,1778415715.5617552,0.53375065,0.7269327,0.31105474,0.65057147,0.79702646,-2.579684
466,1778415715.5718534,0.47313735,0.69650406,0.20153615,0.5309946,1.0015136,-2.5305092
467,1778415715.5819395,0.4985047,0.73437214,0.11122601,0.43310347,1.0009027,-2.3802364
468,1778415715.592147,0.4985047,0.73437214,0.11122601,0.43310347,1.0009027,-2.3802364
469,1778415715.6022725,0.4985047,0.73437214,0.11122601,0.43310347,1.0009027,-2.3802364
470,1778415715.6125522,0.47606438,0.79718065,0.07445556,0.49235737,0.7834347,-2.3848178
471,1778415715.6227756,0.37794888,0.8365122,0.21757366,1.012051,0.09789115,-2.6589437
472,1778415715.6328998,0.345386,0.77766734,0.25068536,1.2730432,0.08200866,-2.7655396
473,1778415715.64299,0.29465136,0.7621176,0.25483194,1.1633929,0.28527406,-2.6772697
474,1778415715.6532235,0.29465136,0.7621176,0.25483194,1.1633929,0.28527406,-2.6772697
475,1778415715.6633534,0.24635585,0.75120234,0.16555844,1.0059423,0.45616361,-2.6338983
476,1778415715.6735964,0.16183871,0.7447386,0.038965687,0.5867361,0.49831334,-2.4926357
477,1778415715.6838028,0.13921544,0.71010244,0.019330395,0.4456262,0.453262,-2.3848178
478,1778415715.693921,0.13921544,0.71010244,0.019330395,0.4456262,0.453262,-2.3848178
479,1778415715.7041333,0.13921544,0.71010244,0.019330395,0.4456262,0.453262,-2.3848178
480,1778415715.7143414,0.13921544,0.71010244,0.019330395,0.4456262,0.453262,-2.3848178
481,1778415715.7244415,0.109640546,0.7998028,0.012073875,0.55955255,0.14401148,-2.211485
482,1778415715.7345436,0.064820856,0.84090275,0.088846646,0.5873469,0.16554448,-2.2262983
483,1778415715.744675,0.059576645,0.83023137,0.10598179,0.5682574,0.2041817,-2.2212586
484,1778415715.754789,0.031709168,0.84096366,0.093359105,0.5166393,0.2780964,-2.2131648
485,1778415715.7650797,0.031709168,0.84096366,0.093359105,0.5166393,0.2780964,-2.2131648
486,1778415715.7754357,-0.006524771,0.8404149,0.053173836,0.48243082,0.30711251,-2.2434027
487,1778415715.7855313,-0.06329638,0.8048031,0.0219525,0.43325618,0.23273966,-2.2748623
488,1778415715.795631,-0.120494835,0.80187607,-0.002134271,0.43417248,0.1928807,-2.276084
489,1778415715.8057659,-0.120494835,0.80187607,-0.002134271,0.43417248,0.1928807,-2.276084
490,1778415715.8159447,-0.120494835,0.80187607,-0.002134271,0.43417248,0.1928807,-2.276084
491,1778415715.8260522,-0.2145247,0.78785086,0.00073175,0.5653558,-0.0032070426,-2.2618814
492,1778415715.8361704,-0.23690407,0.7805943,0.01835473,0.70188415,-0.13057245,-2.256078
493,1778415715.846293,-0.25489292,0.772789,0.029696856,0.6908886,-0.10644327,-2.270586
494,1778415715.8564162,-0.29050475,0.7732768,0.014695979,0.6568329,-0.053145275,-2.3081543
495,1778415715.8665376,-0.33117786,0.74114084,-0.0048783333,0.6178902,-0.025198191,-2.3333526
496,1778415715.8766625,-0.40069413,0.6611971,-0.03091644,0.5653558,0.005192355,-2.2655466
497,1778415715.8868098,-0.45703888,0.62168264,-0.073723815,0.5581781,-0.033292156,-2.1259637
498,1778415715.8970666,-0.5108225,0.5982666,-0.08848077,0.57635134,-0.1226312,-1.9526308
499,1778415715.9071968,-0.5108225,0.5982666,-0.08848077,0.57635134,-0.1226312,-1.9526308
500,1778415715.9175632,-0.5108225,0.5982666,-0.08848077,0.57635134,-0.1226312,-1.9526308
501,1778415715.927697,-0.5108225,0.5982666,-0.08848077,0.57635134,-0.1226312,-1.9526308
502,1778415715.9378097,-0.6068037,0.54820275,-0.06982114,0.5491679,-0.31642818,-1.395827
503,1778415715.9479449,-0.61991423,0.5599107,-0.06445498,0.48670688,-0.2883284,-1.2348641
504,1778415715.9581606,-0.63503706,0.56186205,-0.06786981,0.3830125,-0.2574797,-1.0699304
505,1778415715.9683084,-0.65601385,0.55167854,-0.06280854,0.2947425,-0.23777929,-0.9306532
506,1778415715.978422,-0.66820973,0.5341165,-0.06073525,0.19379699,-0.19364429,-0.7313584
507,1778415715.9885328,-0.6886987,0.52442086,-0.05573496,0.098043874,-0.15088372,-0.51007247
508,1778415715.9986503,-0.6958943,0.5253965,-0.035794772,0.0096211275,-0.10094548,-0.2828306
509,1778415716.0087838,-0.6958943,0.5253965,-0.035794772,0.0096211275,-0.10094548,-0.2828306
510,1778415716.0189075,-0.6958943,0.5253965,-0.035794772,0.0096211275,-0.10094548,-0.2828306
511,1778415716.02904,-0.6958943,0.5253965,-0.035794772,0.0096211275,-0.10094548,-0.2828306
512,1778415716.0391703,-0.6728441,0.51649356,-0.09610317,0.029932396,-0.23350324,0.36896262
513,1778415716.0495512,-0.670344,0.52039623,-0.08933448,0.11026118,-0.34238997,0.47326785
514,1778415716.0596826,-0.655648,0.5219207,-0.077260606,0.18478674,-0.4465425,0.5861252
515,1778415716.0697958,-0.63735425,0.5302748,-0.030184686,0.24663684,-0.52641314,0.74189585
516,1778415716.0799396,-0.6082672,0.5513126,0.018720604,0.25213462,-0.52870387,0.93279123
517,1778415716.0900557,-0.57387495,0.57570434,0.064637914,0.19517145,-0.42836925,1.1242975
518,1778415716.1001859,-0.5488125,0.603023,0.09061504,0.08124508,-0.2527455,1.2811371
519,1778415716.1103122,-0.5214329,0.6288781,0.09671296,-0.045356743,-0.067500606,1.3634512
520,1778415716.120443,-0.5214329,0.6288781,0.09671296,-0.045356743,-0.067500606,1.3634512
521,1778415716.1308153,-0.5214329,0.6288781,0.09671296,-0.045356743,-0.067500606,1.3634512
522,1778415716.1411479,-0.5173473,0.62778056,0.04170975,-0.37965274,0.16233744,1.5176947
523,1778415716.1514096,-0.51576185,0.58411944,-0.100554645,-0.32986724,-0.015271631,1.6270396
524,1778415716.1615057,-0.4991755,0.57972896,-0.094212815,-0.2680171,-0.1337795,1.7081319
525,1778415716.1717668,-0.44917256,0.5939371,-0.043905,-0.11789699,-0.31413746,1.8924606
526,1778415716.1818655,-0.33636108,0.6934551,0.042136606,0.035277467,-0.3474296,2.189341
527,1778415716.191994,-0.33636108,0.6934551,0.042136606,0.035277467,-0.3474296,2.189341
528,1778415716.2021217,-0.22690348,0.7860215,0.058174126,0.01450805,-0.16157386,2.191021
529,1778415716.2122326,-0.22690348,0.7860215,0.058174126,0.01450805,-0.16157386,2.191021
530,1778415716.2223396,-0.1861694,0.7971197,0.0219525,-0.16829337,0.01786781,2.1184807
531,1778415716.2324677,-0.1861694,0.7971197,0.0219525,-0.16829337,0.01786781,2.1184807
532,1778415716.2425745,-0.17641273,0.73309153,-0.045795355,-0.11407909,-0.09819659,2.1557434
533,1778415716.252678,-0.14756958,0.7297377,-0.03225798,-0.021533,-0.17470746,2.2293527
534,1778415716.2628505,-0.14756958,0.7297377,-0.03225798,-0.021533,-0.17470746,2.2293527
535,1778415716.272978,-0.0898833,0.77358174,-0.015244792,0.15393804,-0.29016098,2.385276
536,1778415716.2831,0.031160356,0.8701117,0.06451596,0.18005253,-0.32162055,2.4706445
537,1778415716.2932847,0.031160356,0.8701117,0.06451596,0.09743301,-0.21151209,2.502104
538,1778415716.3033879,0.093907915,0.916334,0.026038107,-0.17745635,0.05421429,2.4037547
539,1778415716.3134754,0.096591,0.9137729,-0.011890938,-0.2415972,0.08582657,2.2832615
540,1778415716.3236542,0.081773065,0.8742583,-0.037868064,-0.22174409,0.051923547,2.2120957
541,1778415716.3339963,0.081773065,0.8742583,-0.037868064,-0.22174409,0.051923547,2.2120957
542,1778415716.3442986,0.081773065,0.8742583,-0.037868064,-0.22174409,0.051923547,2.2120957
543,1778415716.3545454,0.081773065,0.8742583,-0.037868064,-0.22174409,0.051923547,2.2120957
544,1778415716.3646488,0.20037755,0.8099863,0.01603752,-0.10934488,-0.075289145,2.4958427
545,1778415716.3749118,0.20037755,0.8099863,0.01603752,-0.10934488,-0.075289145,2.4958427
546,1778415716.3850625,0.2941635,0.8484642,0.042746395,-0.26710084,0.047494773,2.6627617
547,1778415716.3951685,0.33117786,0.8737095,0.023964813,-0.29229903,0.07422013,2.6691756
548,1778415716.4053462,0.36666775,0.90389425,0.00079272914,-0.30390546,0.07666359,2.6094637
549,1778415716.4154701,0.4056944,0.9067602,0.0059759584,-0.32543847,0.08032878,2.5153904
550,1778415716.4257655,0.42618343,0.8940765,0.011768979,-0.37186423,0.105832405,2.4596488
551,1778415716.43595,0.4499043,0.8726119,-0.009573729,-0.43035457,0.12186762,2.4309382
552,1778415716.4460692,0.47752786,0.8481592,-0.027989438,-0.4352415,0.06765333,2.4602597
553,1778415716.45619,0.50191957,0.84084177,-0.026099084,-0.39385536,-0.01817324,2.520888
554,1778415716.4663231,0.5195425,0.84864706,-0.017440042,-0.31138855,-0.14401148,2.5847235
555,1778415716.4764411,0.58613175,0.89108855,0.02628202,-0.20189096,-0.2507602,2.5662448
556,1778415716.486582,0.58613175,0.89108855,0.02628202,-0.20189096,-0.2507602,2.5662448
557,1778415716.4968011,0.58613175,0.89108855,0.02628202,-0.20189096,-0.2507602,2.5662448
558,1778415716.5069122,0.58613175,0.89108855,0.02628202,-0.20189096,-0.2507602,2.5662448
559,1778415716.5171485,0.6003399,0.8416954,-0.029391957,-0.48808134,0.048563786,2.2747095
560,1778415716.5274086,0.5919248,0.82267,-0.043356188,-0.56382865,-0.13439035,2.200642
561,1778415716.5376956,0.5919248,0.82267,-0.043356188,-0.56382865,-0.13439035,2.200642
562,1778415716.5480773,0.5919248,0.82267,-0.043356188,-0.56382865,-0.13439035,2.200642
563,1778415716.5583272,0.5919248,0.82267,-0.043356188,-0.56382865,-0.13439035,2.200642
564,1778415716.5684652,0.7029069,0.73961633,0.13573962,-0.18402316,-0.37033707,2.3554964
565,1778415716.5786183,0.7643739,0.81218153,0.12336086,-0.2527455,-0.26389378,2.337934
566,1778415716.5888226,0.804925,0.8681604,0.11464083,-0.35934147,-0.17654006,2.1740694
567,1778415716.5989542,0.804925,0.8681604,0.11464083,-0.35934147,-0.17654006,2.1740694
568,1778415716.6093261,0.804925,0.8681604,0.11464083,-0.35934147,-0.17654006,2.1740694
569,1778415716.6194527,0.7221153,0.74321413,-0.002500146,-0.3801109,-0.22357668,1.8315268
570,1778415716.6295826,0.7154686,0.68674743,0.045551438,-0.09666943,-0.54718256,1.732872
571,1778415716.639713,0.7116269,0.6302807,0.080919355,0.025045475,-0.5766568,1.796402
572,1778415716.6498315,0.7116269,0.6302807,0.080919355,0.025045475,-0.5766568,1.796402
573,1778415716.660034,0.7116269,0.6302807,0.080919355,0.025045475,-0.5766568,1.796402
574,1778415716.6701517,0.8088887,0.62302417,0.12970269,-0.044593163,-0.37125334,1.9869919
575,1778415716.680282,0.8324266,0.6553431,-0.035489876,-0.06536258,-0.42180246,1.873371
576,1778415716.6904864,0.8324266,0.6553431,-0.035489876,-0.06536258,-0.42180246,1.873371
577,1778415716.7007303,0.8455371,0.64168376,-0.030062728,0.084910266,-0.68432176,1.7773124
578,1778415716.7110102,0.84102464,0.5984496,0.04610025,0.2133447,-0.8323039,1.719433
579,1778415716.7213416,0.83053625,0.54741,0.11549455,0.258396,-0.8168796,1.7252362
580,1778415716.731477,0.8355975,0.44130626,0.1847059,0.11728613,-0.4167628,1.9376645
581,1778415716.7418272,0.8355975,0.44130626,0.1847059,0.11728613,-0.4167628,1.9376645
582,1778415716.7519526,0.8947473,0.43722063,0.13537374,-0.025809057,-0.2096795,2.0641136
583,1778415716.7623289,0.94322574,0.48777235,0.06530869,-0.18829921,-0.07849618,2.1250474
584,1778415716.7725587,1.0024976,0.5538738,0.0078053335,-0.2603813,-0.09025534,2.0838141
585,1778415716.7826638,1.0286576,0.5664965,-0.029818814,-0.1226312,-0.30695978,1.7909042
586,1778415716.7927954,1.024877,0.5207621,0.012805625,0.0047342055,-0.38973203,1.7038559
587,1778415716.8028944,1.0254866,0.47258857,0.05195425,0.05085453,-0.3622431,1.6997325
588,1778415716.8129938,1.0235963,0.4311837,0.07268717,0.025350908,-0.26190847,1.7588338
589,1778415716.8231351,1.0408534,0.4106337,0.032318957,-0.03772093,-0.18310685,1.8354974
590,1778415716.8332381,1.0494515,0.44368443,-0.015549688,-0.02565634,-0.22067507,1.8438967
591,1778415716.8433568,1.0668916,0.47136897,-0.047868647,0.047036625,-0.32834008,1.7745636
592,1778415716.8536153,1.0668916,0.47136897,-0.047868647,0.047036625,-0.32834008,1.7745636
593,1778415716.863802,1.0810387,0.4601488,-0.034270294,0.22831088,-0.59238654,1.5044084
594,1778415716.8741975,1.0810387,0.4601488,-0.034270294,0.22831088,-0.59238654,1.5044084
595,1778415716.884376,1.1049424,0.42429304,0.07091877,0.110413894,-0.4447099,1.3968961
596,1778415716.8944886,1.1268951,0.39355955,0.085614756,-0.11255192,-0.20830505,1.4031575
597,1778415716.904613,1.147628,0.38862023,0.039880376,-0.32238412,-0.031001411,1.4237741
598,1778415716.9147177,1.167934,0.4182561,0.005549104,-0.420428,0.009315695,1.4162911
599,1778415716.9248292,1.1777517,0.4586853,0.0038416875,-0.46028697,-0.01695151,1.3309226
600,1778415716.9349315,1.1858009,0.45679495,0.04177073,-0.4445572,-0.030390546,1.2096659
601,1778415716.945032,1.1824471,0.44709927,0.0661624,-0.4222606,-0.00045814895,1.125061
602,1778415716.9551437,1.1824471,0.44709927,0.0661624,-0.40561453,0.05131268,1.0564915
603,1778415716.9652522,1.1800079,0.4281347,0.064820856,-0.41218132,0.0983493,0.9807441
604,1778415716.975374,1.1800079,0.4281347,0.064820856,-0.41218132,0.0983493,0.9807441
605,1778415716.9854968,1.1906183,0.45289227,0.033477563,-0.38988474,0.08857546,0.79091775
606,1778415716.995623,1.1852521,0.45923412,0.030062728,-0.3501785,0.042455133,0.65576386
607,1778415717.0057373,1.1778736,0.4411843,0.026769854,-0.28863382,-0.010995574,0.54137933
608,1778415717.0158675,1.164702,0.42758593,0.03664848,-0.21426098,-0.063224554,0.47571132
609,1778415717.0260048,1.1561041,0.41935372,0.064942814,-0.12904528,-0.09987647,0.4184427
610,1778415717.036138,1.1547625,0.41648772,0.0892735,-0.078343466,-0.07971791,0.36896262
611,1778415717.0462732,1.1509209,0.41941473,0.10195717,-0.0786489,-0.03390302,0.32498032
612,1778415717.0564158,1.1494573,0.42136607,0.103359684,-0.10781772,0.034972034,0.27168232
613,1778415717.066567,1.1411031,0.41990253,0.08591965,-0.15302174,0.11484267,0.19379699
614,1778415717.0766926,1.1411031,0.41990253,0.08591965,-0.15302174,0.11484267,0.19379699
615,1778415717.0868094,1.1228094,0.4110606,0.045185562,-0.17623462,0.1498147,0.03756821
616,1778415717.0970266,1.1173823,0.40081608,0.03603869,-0.13332134,0.12064589,-0.03145956
617,1778415717.1071568,1.1086012,0.40179175,0.033111688,-0.077121735,0.08536842,-0.0870483
618,1778415717.1172793,1.097442,0.39837688,0.042441502,-0.013744468,0.042760566,-0.15882497
619,1778415717.1274009,1.0911613,0.38331506,0.057625312,0.02076942,0.035277467,-0.21792617
620,1778415717.1376076,1.0838437,0.37215585,0.06841862,0.018020526,0.05100725,-0.2582433
621,1778415717.1477375,1.0756115,0.36630186,0.07530928,-0.0125227375,0.093462385,-0.30192015
622,1778415717.1578536,1.0814046,0.35996002,0.07238227,-0.044135015,0.14660765,-0.33826664
623,1778415717.1679962,1.0804288,0.36435053,0.067503944,-0.06612616,0.18173242,-0.3746131
624,1778415717.1781826,1.0804288,0.36435053,0.067503944,-0.06612616,0.18173242,-0.3746131
625,1778415717.1884727,1.1057962,0.36721656,0.06835765,-0.08384126,0.20708331,-0.45891252
626,1778415717.1986046,1.1121991,0.3867299,0.07549221,-0.06734789,0.21792617,-0.52015173
627,1778415717.2087114,1.1176262,0.39069352,0.0866514,-0.04718934,0.22861631,-0.5766568
628,1778415717.2188346,1.1176872,0.39166918,0.09201756,-0.027183503,0.25977045,-0.65393126
629,1778415717.2289844,1.121041,0.39215705,0.08762706,-0.016798794,0.28512135,-0.7200574
630,1778415717.2391152,1.1254925,0.39703536,0.08902958,-0.016035212,0.30558532,-0.7787005
631,1778415717.2492442,1.1279926,0.40727988,0.09573729,-0.02855795,0.33215797,-0.82756966
632,1778415717.2593675,1.1206752,0.41118255,0.10110346,-0.04718934,0.37568212,-0.90194255
633,1778415717.269504,1.1065279,0.40923122,0.09726177,-0.053603426,0.41309762,-0.95814216
634,1778415717.2796397,1.0981739,0.39947453,0.091529734,-0.04184427,0.441961,-1.0144944
635,1778415717.2897415,1.0898806,0.40093803,0.08866371,-0.028863383,0.45875978,-1.0622946
636,1778415717.2998695,1.0962834,0.40825552,0.093907915,-0.031612277,0.47555858,-1.1001683
637,1778415717.3101177,1.1104916,0.41606086,0.100127794,-0.05467244,0.5010622,-1.1242975
638,1778415717.320253,1.1276268,0.44094035,0.109640546,-0.10338894,0.550695,-1.1629347
639,1778415717.3304942,1.1382982,0.4696006,0.09342009,-0.16676621,0.61010164,-1.2368494
640,1778415717.3406665,1.14464,0.48472342,0.080614455,-0.21853705,0.6200282,-1.3170254
641,1778415717.350788,1.1431764,0.4871626,0.078663126,-0.24220806,0.6093381,-1.3755158
642,1778415717.3610425,1.1358589,0.4876504,0.08116327,-0.23441954,0.5862779,-1.4307991
643,1778415717.371177,1.1280537,0.4935044,0.07774844,-0.19410244,0.52213705,-1.4923438
644,1778415717.3812842,1.1194556,0.50332206,0.10689648,-0.13332134,0.44104472,-1.5445728
645,1778415717.3913765,1.1108575,0.5131397,0.14043503,-0.06841691,0.4129449,-1.6015359
646,1778415717.4014955,1.1076865,0.52686,0.17147341,-0.0421497,0.4549419,-1.6604844
647,1778415717.411617,1.0839658,0.5527152,0.19623096,-0.110413894,0.65301496,-1.8112154
648,1778415717.421716,1.0765872,0.55369085,0.18312044,-0.17363845,0.7498371,-1.8752036
649,1778415717.43184,1.0765872,0.55369085,0.18312044,-0.17363845,0.7498371,-1.8752036
650,1778415717.441976,1.0575007,0.5566178,0.1671439,-0.20769419,0.8043568,-1.929876
651,1778415717.4520981,1.0117054,0.56393534,0.16726585,-0.19501872,0.83199847,-1.9996674
652,1778415717.4623315,1.0117054,0.56393534,0.16726585,-0.19501872,0.83199847,-1.9996674
653,1778415717.472768,0.9956069,0.5658867,0.15757017,-0.1647809,0.82818055,-2.0172298
654,1778415717.4828854,0.9604829,0.5834487,0.14689882,-0.08552113,0.7518224,-2.0474675
655,1778415717.4932466,0.9338349,0.6103405,0.17068069,0.14889841,0.5839872,-2.166281
656,1778415717.5034537,0.9071261,0.61131614,0.18580353,0.23671028,0.53893584,-2.2064452
657,1778415717.5136044,0.8852346,0.62015814,0.18684018,0.34513888,0.49846604,-2.2626448
658,1778415717.523745,0.869319,0.6085111,0.22684251,0.38240165,0.46929723,-2.2777638
659,1778415717.53385,0.8612698,0.5998521,0.2678205,0.34666604,0.5516113,-2.2576053
660,1778415717.5439498,0.85541576,0.6022912,0.27263784,0.2967278,0.647059,-2.222786
661,1778415717.5540595,0.8621235,0.6032059,0.25220984,0.26328292,0.69913524,-2.1881194
662,1778415717.564177,0.8578549,0.65729445,0.24849011,0.23365596,0.7440339,-2.1534526
663,1778415717.5744405,0.8578549,0.65729445,0.24849011,0.23365596,0.7440339,-2.1534526
664,1778415717.584692,0.84279305,0.70607775,0.23659918,0.21762075,0.79717916,-2.208278
665,1778415717.5948238,0.79736364,0.7094926,0.21678093,0.26160303,0.7690793,-2.2870796
666,1778415717.6051779,0.78358227,0.70699245,0.19446257,0.3555236,0.6974554,-2.308918
667,1778415717.61529,0.7621176,0.7367503,0.18415709,0.4746423,0.5725334,-2.339614
668,1778415717.625446,0.7480924,0.75089747,0.19043794,0.5861252,0.46089783,-2.4032967
669,1778415717.635567,0.7584589,0.7431531,0.22354963,0.605062,0.40653083,-2.4231498
670,1778415717.6456802,0.7079681,0.7783381,0.24928285,0.5551238,0.46593747,-2.4764478
671,1778415717.65581,0.7050411,0.7821798,0.23861149,0.48701233,0.5290093,-2.530662
672,1778415717.6659427,0.66314846,0.7802894,0.25239277,0.4166101,0.59574634,-2.5738807
673,1778415717.6760528,0.603023,0.7608371,0.22696446,0.38881573,0.70432764,-2.624888
674,1778415717.6862042,0.603023,0.7608371,0.22696446,0.38881573,0.70432764,-2.624888
675,1778415717.6963284,0.5403974,0.74028707,0.18690115,0.38133264,0.7431176,-2.5427265
676,1778415717.7064466,0.51448125,0.7666301,0.16257046,0.39813143,0.70554936,-2.547919
677,1778415717.7165864,0.49405318,0.77492326,0.16500962,0.44012842,0.65836,-2.5630379
678,1778415717.7267008,0.46185625,0.7754111,0.15830192,0.5340489,0.59742624,-2.5983152
679,1778415717.736836,0.45069703,0.7793747,0.17293692,0.56413406,0.54061574,-2.5877779
680,1778415717.7469575,0.418622,0.7915706,0.18269359,0.55680364,0.55756724,-2.6035078
681,1778415717.7571058,0.35325232,0.7765087,0.17769329,0.5531385,0.6070473,-2.6316075
682,1778415717.7672377,0.32398233,0.7585198,0.17787623,0.54626626,0.63239825,-2.6143506
683,1778415717.7773445,0.27593073,0.746263,0.14019111,0.5563455,0.64675355,-2.5862508
684,1778415717.7874458,0.23873344,0.7340672,0.10878683,0.5795584,0.5707009,-2.5205827
685,1778415717.7975569,0.22653762,0.7487022,0.105372004,0.61850107,0.50778174,-2.472019
686,1778415717.8078957,0.18269359,0.77406955,0.100005835,0.6969972,0.4447099,-2.4753788
687,1778415717.8180137,0.16848545,0.7579711,0.09433477,0.7510588,0.38041633,-2.4759896
688,1778415717.828155,0.15677744,0.75553185,0.09537142,0.7620544,0.34895676,-2.4578164
689,1778415717.838283,0.11592139,0.7779722,0.09488358,0.7510588,0.35033122,-2.4712553
690,1778415717.8484476,0.0757971,0.7624225,0.075675145,0.7276932,0.35643986,-2.4953845
691,1778415717.858586,0.021525647,0.7555929,0.049637042,0.72509706,0.3239113,-2.4953845
692,1778415717.8688836,-0.009329813,0.73553073,0.024086772,0.7492262,0.2779437,-2.482251
693,1778415717.8790164,-0.028843146,0.7341282,0.026647896,0.744492,0.19715676,-2.4236078
694,1778415717.8891468,-0.07366284,0.7516902,0.02426971,0.7350236,0.14905111,-2.3759604
695,1778415717.8992805,-0.083907336,0.7429092,0.026769854,0.7254025,0.089949906,-2.3257167
696,1778415717.9094748,-0.12086072,0.763947,0.035550855,0.69913524,0.082924955,-2.2826507
697,1778415717.91961,-0.13647138,0.75906867,0.028843146,0.67149365,0.08307768,-2.251802
698,1778415717.929754,-0.14616705,0.7649227,0.03561183,0.63453627,0.0795652,-2.196366
699,1778415717.939923,-0.1773884,0.79126567,0.019574312,0.600786,0.09193522,-2.172695
700,1778415717.9500618,-0.1823277,0.80193704,0.011708,0.57894754,0.06307184,-2.1627684
701,1778415717.960257,-0.19592606,0.81754774,0.012134855,0.5653558,0.053450707,-2.1772764
702,1778415717.970356,-0.22275689,0.813706,0.0064637917,0.5187773,0.057268616,-2.2368357
703,1778415717.9806921,-0.25294158,0.7996198,0.021708583,0.46639562,0.06490443,-2.2547035
704,1778415717.9908974,-0.29385862,0.76406896,0.03378246,0.40378192,0.12064589,-2.245388
705,1778415718.0010064,-0.33971494,0.7299816,0.042380523,0.32742378,0.21762075,-2.171015
706,1778415718.0111349,-0.38410777,0.70711446,0.039819397,0.29077184,0.2817616,-2.110692
707,1778415718.0212405,-0.45886827,0.6681487,0.024757542,0.2554944,0.38927388,-1.9511036
708,1778415718.0316465,-0.45886827,0.6681487,0.024757542,0.2554944,0.38927388,-1.9511036
709,1778415718.0417447,-0.50338304,0.65595293,0.002134271,0.17302758,0.5357288,-1.7847955
710,1778415718.0519912,-0.50338304,0.65595293,0.002134271,0.17302758,0.5357288,-1.7847955
711,1778415718.0621068,-0.5486296,0.66070926,-0.078480184,0.029626964,0.6776023,-1.7696766
712,1778415718.0724375,-0.5486296,0.66070926,-0.078480184,0.029626964,0.6776023,-1.7696766
713,1778415718.082838,-0.5757653,0.62900007,-0.11903133,-0.038179077,0.6817256,-1.7605137
714,1778415718.0931275,-0.6222314,0.5792411,-0.1390325,-0.077579886,0.6409504,-1.6757561
715,1778415718.1033554,-0.72351784,0.5017976,-0.17171735,-0.037873644,0.48151454,-1.3765849
716,1778415718.1135843,-0.7607151,0.47594243,-0.19379179,0.07162395,0.2771801,-1.0903945
717,1778415718.1237156,-0.7871191,0.45594123,-0.2013532,0.1600467,0.110413894,-0.8958339
718,1778415718.1338294,-0.79974174,0.44185504,-0.19153556,0.26557365,-0.09636399,-0.6414085
719,1778415718.143988,-0.802059,0.43362287,-0.16031423,0.33536503,-0.27152961,-0.36346483
720,1778415718.154101,-0.79260725,0.43270817,-0.13067836,0.36147952,-0.35369098,-0.13133603
721,1778415718.164335,-0.76754475,0.4658808,-0.095920235,0.3352123,-0.41370848,0.20173825
722,1778415718.174623,-0.76754475,0.4658808,-0.095920235,0.3352123,-0.41370848,0.20173825
723,1778415718.1850064,-0.7429092,0.4990535,-0.06610142,0.30024028,-0.397826,0.3304781
724,1778415718.195114,-0.6784542,0.5394827,-0.060247418,0.13179417,-0.3304781,0.66996646
725,1778415718.2052388,-0.6555871,0.55210537,-0.072565205,0.0795652,-0.32284227,0.7855727
726,1778415718.2153625,-0.64491564,0.5540567,-0.08085837,0.06688975,-0.36132678,0.8773552
727,1778415718.225478,-0.635159,0.5579594,-0.079029,0.085673854,-0.44700065,0.98837996
728,1778415718.2355952,-0.6325979,0.5545445,-0.06390616,0.14431691,-0.52458054,1.0746647
729,1778415718.2457035,-0.6319881,0.5370435,-0.033172667,0.21991149,-0.5731443,1.142318
730,1778415718.2557926,-0.6172921,0.5175912,-0.012195834,0.28130344,-0.56505036,1.2052372
731,1778415718.265944,-0.6086331,0.5010049,-0.025245376,0.3492622,-0.5279403,1.3037392
732,1778415718.276194,-0.59948623,0.49508983,-0.042746395,0.37216964,-0.5340489,1.4198035
733,1778415718.2863421,-0.582473,0.49606553,-0.04914921,0.37858373,-0.548557,1.5897768
734,1778415718.2964532,-0.5424707,0.5052734,-0.04744179,0.35048392,-0.5627596,1.8115209
735,1778415718.3066037,-0.51503,0.52917725,-0.03597771,0.30665436,-0.5540548,2.0346394
736,1778415718.3167589,-0.45191658,0.5778996,-0.005854,0.23609942,-0.49693888,2.2336287
737,1778415718.3268833,-0.40197468,0.62034106,0.022379354,0.14095716,-0.40469822,2.3631322
738,1778415718.337063,-0.35203275,0.6685756,0.035550855,-0.022143865,-0.20845777,2.438574
739,1778415718.3471859,-0.31940886,0.6885158,0.03091644,-0.18845193,-0.039858956,2.4465153
740,1778415718.3574605,-0.28355312,0.6811373,-0.012012896,-0.42623124,0.16050485,2.4541512
741,1778415718.367671,-0.27257687,0.6678439,-0.050856624,-0.5045747,0.18509217,2.4856107
742,1778415718.3777862,-0.25586858,0.6560749,-0.10677453,-0.5320636,0.07422013,2.5859454
743,1778415718.3879757,-0.21007323,0.6399154,-0.10006681,-0.41523564,-0.15195273,2.7704265
744,1778415718.3980803,-0.16336319,0.6624167,-0.037136313,-0.24037547,-0.3408628,3.0057623
745,1778415718.408201,-0.097444706,0.7093707,0.053783625,-0.11362094,-0.37293324,3.2088752
746,1778415718.4183247,-0.033111688,0.7621176,0.12525122,-0.12644911,-0.26908615,3.3217325
747,1778415718.4284565,0.05366167,0.81724274,0.19653587,-0.33017266,0.07452556,3.376863
748,1778415718.4386084,0.11421398,0.85572064,0.19513334,-0.7136433,0.5531385,3.3238704
749,1778415718.4487302,0.15006974,0.8750511,0.14769155,-1.1284208,0.94974273,3.2246048
750,1778415718.4588711,0.16555844,0.8680384,0.050368793,-1.378112,1.104139,3.1477885
751,1778415718.4689949,0.166839,0.8614527,-0.074577525,-1.4720325,1.0129673,3.0311134
752,1778415718.4790986,0.18165694,0.86425775,-0.1325687,-1.3843733,0.8038987,2.950479
753,1778415718.4894483,0.21409786,0.8451712,-0.15494807,-0.9549351,0.1611157,2.8362474
754,1778415718.4995892,0.26318607,0.8360244,-0.0898833,-0.45372015,-0.38927388,2.8145616
755,1778415718.5097313,0.31635994,0.84395164,0.0061588963,-0.05390886,-0.7496844,2.8467848
756,1778415718.519903,0.3565452,0.8719411,0.12409261,0.10354166,-0.8216137,2.8658743
757,1778415718.5300417,0.3784367,0.9071261,0.1884866,0.12568553,-0.728915,2.841287
758,1778415718.5401766,0.39142528,0.93889624,0.22861089,-0.040927973,-0.36254853,2.7052166
759,1778415718.5505846,0.39764515,0.9247491,0.21361004,-0.29993483,0.022296581,2.5505152
760,1778415718.560901,0.41179234,0.860721,0.15116736,-0.5645922,0.2866485,2.4839308
761,1778415718.5710464,0.42728102,0.82840204,0.06518673,-0.79213953,0.4373795,2.447279
762,1778415718.581177,0.44130626,0.81547445,-0.0471369,-0.8738427,0.38835758,2.4344506
763,1778415718.591282,0.47088113,0.7982173,-0.1565945,-0.679893,-0.06246097,2.447737
764,1778415718.6014438,0.48405263,0.81620616,-0.16013129,-0.28527406,-0.61346143,2.4356725
765,1778415718.6115427,0.53527516,0.8223651,0.024452647,0.46196684,-1.264033,2.329382
766,1778415718.6216319,0.53527516,0.8223651,0.024452647,0.46960264,-1.1699597,2.3232732
767,1778415718.6317527,0.57131386,0.83145094,0.19549921,0.46960264,-1.1699597,2.3232732
768,1778415718.641842,0.59680307,0.8219382,0.310262,-0.39064834,-0.14126259,2.307696
769,1778415718.6521583,0.6896134,0.74071395,0.20092636,-0.98639464,0.38896844,2.3451116
770,1778415718.6623275,0.6896134,0.74071395,0.20092636,-0.98639464,0.38896844,2.3451116
771,1778415718.6726027,0.6904671,0.7502267,0.08805392,-1.1930199,0.49877146,2.368172
772,1778415718.6827652,0.6784542,0.76699597,-0.064272046,-1.1578951,0.2837469,2.3661866
773,1778415718.6930046,0.71034634,0.7342501,-0.10896978,-0.7473936,-0.2490803,2.3600779
774,1778415718.7031276,0.7818749,0.7218104,0.056222793,0.30283645,-1.1365148,2.3580925
775,1778415718.7133548,0.7818749,0.7218104,0.056222793,0.43401974,-1.1491902,2.379931
776,1778415718.7235308,0.81870633,0.73815286,0.18781583,0.2359467,-0.8865182,2.31747
777,1778415718.733629,0.87017274,0.76449585,0.23129399,-0.13576481,-0.55756724,2.1945333
778,1778415718.7437553,0.8629772,0.73126215,0.17458336,-0.37094793,-0.36819902,2.10046
779,1778415718.753862,0.83169484,0.6999189,0.0863465,-0.41050145,-0.31612277,1.9920316
780,1778415718.763981,0.81529146,0.6404032,0.051283482,-0.17272215,-0.463494,1.9613355
781,1778415718.77414,0.81529146,0.6404032,0.051283482,0.1142318,-0.6241516,1.9961549
782,1778415718.7842734,0.82895076,0.56003267,0.08963938,0.37873647,-0.7414377,2.075262
783,1778415718.7944405,0.82895076,0.56003267,0.08963938,0.37873647,-0.7414377,2.075262
784,1778415718.8045652,0.94438434,0.56369144,0.2511732,0.21762075,-0.3315471,2.3515258
785,1778415718.814683,0.9836549,0.62393886,0.18598646,-0.20005837,-0.007330383,2.3623686
786,1778415718.8248112,0.9931067,0.6399154,0.12165344,-0.52396965,0.15974127,2.2655466
787,1778415718.8352747,0.98127675,0.6343663,0.015671646,-0.59315014,0.11789699,2.1536055
788,1778415718.8453813,0.97700816,0.6371713,-0.051466417,-0.41920626,-0.14004086,1.9898936
789,1778415718.8555005,0.99347264,0.6068647,-0.062015813,-0.16340645,-0.42012256,1.8952094
790,1778415718.865596,1.0001193,0.56509393,0.010183521,0.10247265,-0.7002043,1.8467983
791,1778415718.8756955,1.0326823,0.5247867,0.094456725,0.14859296,-0.7341073,1.8695531
792,1778415718.8857896,1.0430486,0.51557887,0.12854409,0.030695979,-0.62858033,1.8990273
793,1778415718.8959248,1.0643305,0.51356655,0.092932254,-0.18677205,-0.48273626,1.9026926
794,1778415718.9060423,1.0733553,0.5422268,0.047990605,-0.27351493,-0.48349985,1.8435913
795,1778415718.9162974,1.0757335,0.5334458,0.036343586,-0.17669277,-0.59498274,1.7617353
796,1778415718.9264133,1.0933565,0.53490925,0.04744179,-0.021838432,-0.7163922,1.6656768
797,1778415718.9365466,1.1101867,0.53399456,0.09360302,0.071776666,-0.7495316,1.5851953
798,1778415718.9466522,1.1143943,0.51509106,0.15988737,0.053297993,-0.66859204,1.520749
799,1778415718.956771,1.1223216,0.48691866,0.19549921,-0.13591751,-0.43478334,1.4996742
800,1778415718.966904,1.13281,0.47460085,0.15275282,-0.36147952,-0.1863139,1.481501
801,1778415718.9770327,1.1403714,0.4877114,0.10640865,-0.44135013,-0.10995574,1.4567609
802,1778415718.987136,1.1425056,0.5026513,0.04841746,-0.43249258,-0.123242065,1.3807082
803,1778415718.9972665,1.1667144,0.50356597,0.018171793,-0.29229903,-0.24953845,1.2800682
804,1778415719.007388,1.1667144,0.50356597,0.018171793,-0.29229903,-0.24953845,1.2800682
805,1778415719.017505,1.2046435,0.5173473,0.08652944,-0.087201014,-0.42073345,1.1443033
806,1778415719.0276787,1.2122048,0.5091151,0.12842213,-0.0038179078,-0.40561453,0.9783007
807,1778415719.037785,1.2167783,0.5125909,0.1595215,-0.06566802,-0.28588495,0.9130908
808,1778415719.0479586,1.2104365,0.5228354,0.1589727,-0.19165897,-0.093462385,0.820392
809,1778415719.0581582,1.1981796,0.5218597,0.14250831,-0.33001995,0.083383106,0.70341134
810,1778415719.0683026,1.185374,0.5188717,0.123604774,-0.4129449,0.19120082,0.6088799
811,1778415719.0784218,1.1652509,0.50570023,0.10427438,-0.47525316,0.27947086,0.50808716
812,1778415719.0885582,1.1641533,0.48960173,0.08787098,-0.5010622,0.3182608,0.44608435
813,1778415719.0989454,1.1489085,0.49002862,0.063113436,-0.4813618,0.31444287,0.36392298
814,1778415719.1091938,1.1409812,0.4846624,0.042746395,-0.40133846,0.24281894,0.27977628
815,1778415719.119304,1.1253705,0.48222327,0.045734376,-0.27305678,0.12156218,0.20005837
816,1778415719.12948,1.1166505,0.47685713,0.05549104,-0.15409076,0.025503624,0.1386664
817,1778415719.1396542,1.121163,0.48569906,0.07049192,-0.013591751,-0.064446285,0.052687127
818,1778415719.1497707,1.1159797,0.49405318,0.100127794,0.09086621,-0.09636399,-0.04627304
819,1778415719.159896,1.1243339,0.48722354,0.11915329,0.124005646,-0.065209866,-0.14202617
820,1778415719.170006,1.1263462,0.4809427,0.12890996,0.10064005,0.020463986,-0.22235495
821,1778415719.1801298,1.1257974,0.47746688,0.1235438,0.07391469,0.07849618,-0.26358834
822,1778415719.1902554,1.1320173,0.47453988,0.103115775,0.021533,0.15836681,-0.3266602
823,1778415719.2005153,1.1343955,0.47935724,0.08750511,-0.015118915,0.20066923,-0.38606682
824,1778415719.2107239,1.138725,0.49301654,0.07719963,-0.025503624,0.21884248,-0.45937067
825,1778415719.2208524,1.1372614,0.49978524,0.07183346,-0.01786781,0.22235495,-0.5525276
826,1778415719.2309694,1.1376883,0.50271225,0.062076796,-0.0041233404,0.21029036,-0.62598413
827,1778415719.2411537,1.1381761,0.5071027,0.059149794,0.008246681,0.1908954,-0.71669763
828,1778415719.2514741,1.1381761,0.5114323,0.04988096,0.008399397,0.17272215,-0.81214535
829,1778415719.261575,1.1484207,0.51387143,0.050307814,0.0015271631,0.118507855,-0.97005403
830,1778415719.2716951,1.1572627,0.5202133,0.05847902,0.0015271631,0.118507855,-0.97005403
831,1778415719.2818203,1.1568358,0.5305188,0.067199044,-0.0076358155,0.12095132,-1.0458013
832,1778415719.2920563,1.1573846,0.53442144,0.08274873,-0.03756821,0.1330159,-1.1421653
833,1778415719.302199,1.1477499,0.5325311,0.09884723,-0.078343466,0.17913623,-1.2322679
834,1778415719.3123145,1.1345785,0.5286284,0.09695688,-0.13744467,0.25778514,-1.3735305
835,1778415719.3224318,1.1345785,0.5286284,0.09695688,-0.13744467,0.25778514,-1.3735305
836,1778415719.3325696,1.1151261,0.53643376,0.109640546,-0.11636983,0.28771752,-1.464244
837,1778415719.3426757,1.1244558,0.5515566,0.108055085,-0.104610674,0.30818152,-1.5059355
838,1778415719.3529358,1.1292732,0.59290045,0.08055348,-0.09605856,0.30940324,-1.6331482
839,1778415719.363125,1.1287243,0.59582746,0.073723815,-0.07651087,0.28512135,-1.730123
840,1778415719.3732347,1.126773,0.58661956,0.080065645,-0.055741455,0.24388795,-1.8037324
841,1778415719.3833747,1.1089061,0.58521706,0.10403045,-0.055741455,0.24388795,-1.8037324
842,1778415719.3934994,1.1089061,0.58521706,0.10403045,-0.039553523,0.22082779,-1.8724546
843,1778415719.4036336,1.1021985,0.59204674,0.12927583,-0.031612277,0.29565877,-1.9703459
844,1778415719.4137478,1.1159797,0.6125358,0.13982524,-0.031612277,0.29565877,-1.9703459
845,1778415719.423948,1.0975641,0.6306466,0.15726528,-0.109650314,0.42256603,-2.0868683
846,1778415719.4340477,1.0810996,0.63552487,0.16799761,-0.14737125,0.50610185,-2.1438315
847,1778415719.444317,1.0493295,0.63796407,0.14964288,-0.17302758,0.6267477,-2.2351558
848,1778415719.454457,1.0286576,0.64326924,0.11708001,-0.12370021,0.6397286,-2.2883012
849,1778415719.4645877,1.0270721,0.6485744,0.08933448,0.004886922,0.5510005,-2.346028
850,1778415719.474681,1.0270721,0.6485744,0.08933448,0.13836098,0.43692136,-2.4098635
851,1778415719.4847791,0.9992657,0.6880889,0.076102,0.3061962,0.26710084,-2.503631
852,1778415719.4948912,0.9829232,0.6871742,0.117506854,0.42363504,0.1518,-2.5795312
853,1778415719.5050154,0.9528605,0.6847961,0.14488651,0.48838675,0.13820826,-2.6487117
854,1778415719.5151582,0.9315177,0.69217455,0.16580236,0.48456886,0.17562376,-2.6865854
855,1778415719.5254707,0.8994427,0.68589365,0.17958365,0.41691554,0.26282477,-2.7065911
856,1778415719.5355935,0.8877348,0.6771737,0.17824212,0.27000242,0.40591997,-2.6951375
857,1778415719.545707,0.8271825,0.69272333,0.15696037,0.13500121,0.5561928,-2.6946793
858,1778415719.555878,0.8036444,0.6829667,0.1323248,0.06505715,0.62888575,-2.6865854
859,1778415719.5660043,0.7894363,0.6785762,0.1255561,0.017104227,0.6545421,-2.6554313
860,1778415719.5761356,0.77089864,0.7048582,0.10842097,-0.04062254,0.6730208,-2.615725
861,1778415719.5862448,0.7507755,0.71266353,0.08268775,-0.041996986,0.65011334,-2.6193902
862,1778415719.5964215,0.7220543,0.7428482,0.07049192,0.014202617,0.54473907,-2.637258
863,1778415719.6065595,0.7220543,0.7428482,0.07049192,0.014202617,0.54473907,-2.637258
864,1778415719.6166918,0.65881896,0.7541904,0.097871564,0.23136522,0.32528573,-2.7437012
865,1778415719.6268861,0.6019254,0.7576662,0.120921694,0.36025777,0.27275133,-2.801428
866,1778415719.6371746,0.5669233,0.7401651,0.1367153,0.45921794,0.269697,-2.852588
867,1778415719.6474195,0.53033584,0.71296847,0.14586218,0.48380527,0.3022256,-2.8454103
868,1778415719.6575322,0.4873455,0.699797,0.12659276,0.49388456,0.3407101,-2.8319712
869,1778415719.6677675,0.45118487,0.69004023,0.12189735,0.4896085,0.36010507,-2.7768407
870,1778415719.6778805,0.42093918,0.6880889,0.10403045,0.48655418,0.36850446,-2.7279716
871,1778415719.6880102,0.38666892,0.69882125,0.08415125,0.49770245,0.34193182,-2.685211
872,1778415719.6981282,0.34526405,0.7222373,0.07445556,0.5448918,0.28863382,-2.6650524
873,1778415719.7082512,0.30861557,0.71735895,0.066345334,0.5726862,0.25595254,-2.6629143
874,1778415719.7183943,0.25928342,0.7149198,0.04463675,0.6401868,0.21090123,-2.6734517
875,1778415719.7285264,0.23470882,0.70851696,0.0102445,0.73929965,0.10781772,-2.6574166
876,1778415719.7386975,0.1952553,0.7134563,0.008902958,0.82253003,-0.010842858,-2.63512
877,1778415719.7488275,0.18403512,0.7100414,0.011890938,0.88178396,-0.09911288,-2.6004534
878,1778415719.7590268,0.17836407,0.7130294,0.04006331,0.89919364,-0.13545936,-2.5309675
879,1778415719.7692685,0.14628904,0.7262619,0.05860098,0.8724683,-0.10873401,-2.4327707
880,1778415719.7795858,0.110311314,0.75455624,0.06104015,0.82833326,-0.040927973,-2.3967297
881,1778415719.7897239,0.07226031,0.7599224,0.04847844,0.79717916,0.030390546,-2.3926065
882,1778415719.7998545,0.049759,0.7540684,0.042258564,0.7637343,0.07284568,-2.366492
883,1778415719.8099728,0.03207504,0.75156826,0.018049834,0.7111999,0.11056661,-2.303573
884,1778415719.820229,0.028172374,0.76961803,0.011098208,0.6525568,0.11927144,-2.2295055
885,1778415719.8304129,-0.0030489585,0.78327745,-0.0024391667,0.5685628,0.14996742,-2.1626158
886,1778415719.8405514,-0.0123177925,0.7920584,-0.005854,0.49174652,0.14920384,-2.0712914
887,1778415719.8509629,-0.026343001,0.81547445,-0.000121958336,0.42943826,0.15683965,-1.997224
888,1778415719.8613424,-0.038477857,0.8466957,0.0026221042,0.3633121,0.19211712,-1.970804
889,1778415719.8718612,-0.059942525,0.85157406,-0.0012195833,0.23884831,0.26633725,-1.9657644
890,1778415719.8819947,-0.07122366,0.85931844,-0.023598937,0.16508633,0.2958115,-1.9588921
891,1778415719.89217,-0.073723815,0.8666359,-0.03237994,0.13836098,0.29229903,-1.9488128
892,1778415719.9022775,-0.10293283,0.8890763,-0.036770437,0.101556346,0.27320948,-1.9851593
893,1778415719.9124033,-0.16458277,0.8378538,-0.059576645,0.12034045,0.18982637,-2.1224513
894,1778415719.9226108,-0.16458277,0.8378538,-0.059576645,0.1684461,0.10262536,-2.1181753
895,1778415719.9327166,-0.22903776,0.81791353,-0.07719963,0.2284636,-0.007330383,-2.1140518
896,1778415719.9428213,-0.22903776,0.81791353,-0.07719963,0.2284636,-0.007330383,-2.1140518
897,1778415719.9529612,-0.2836141,0.8043152,-0.064272046,0.36056322,-0.23732115,-2.1157317
898,1778415719.963116,-0.2836141,0.8043152,-0.064272046,0.36056322,-0.23732115,-2.1157317
899,1778415719.9732468,-0.3439225,0.76205665,-0.025367333,0.47616947,-0.33322698,-2.1415408
900,1778415719.9833765,-0.3439225,0.76205665,-0.025367333,0.47616947,-0.33322698,-2.1415408
901,1778415719.9934928,-0.41539007,0.7382748,0.014939896,0.46670106,-0.33078352,-2.1132884
902,1778415720.0035887,-0.4677102,0.68613756,0.0037807084,0.41645738,-0.24480425,-2.0992384
903,1778415720.0136871,-0.506371,0.6471719,-0.009024917,0.26435193,-0.046120327,-2.0227275
904,1778415720.0237896,-0.56503296,0.5955225,-0.021098793,0.22449298,0.031306844,-1.9207131
905,1778415720.0338955,-0.61101127,0.550215,-0.035733793,0.22266038,0.06994407,-1.7664696
906,1778415720.0440152,-0.6598556,0.51173717,-0.039209604,0.26710084,0.08903361,-1.5735888
907,1778415720.0541413,-0.69065005,0.4952118,-0.041953668,0.26710084,0.08903361,-1.5735888
908,1778415720.064481,-0.6988823,0.48984566,-0.03750219,0.33551773,0.108123146,-1.174083
909,1778415720.074614,-0.69839436,0.4922848,-0.033599522,0.32895094,0.1553125,-1.0112875
910,1778415720.0847194,-0.69839436,0.4922848,-0.033599522,0.32895094,0.1553125,-1.0112875
911,1778415720.094825,-0.7098585,0.5136275,-0.08573671,0.19394971,0.28389964,-0.7612908
912,1778415720.1049528,-0.72028595,0.50380987,-0.1197021,0.10797043,0.322995,-0.6404922
913,1778415720.115114,-0.7355917,0.4969192,-0.158058,0.0580322,0.30405816,-0.52381694
914,1778415720.1252234,-0.7490071,0.48130858,-0.19440159,0.06490443,0.2003638,-0.39187005
915,1778415720.1354632,-0.75882477,0.47197875,-0.20592664,0.13942999,0.040775254,-0.24480425
916,1778415720.1455743,-0.7676058,0.46472222,-0.19665782,0.22739458,-0.09605856,-0.103847094
917,1778415720.1557093,-0.76791066,0.46527106,-0.16793664,0.3352123,-0.23884831,0.08689558
918,1778415720.1658328,-0.7589467,0.4750887,-0.13299556,0.41172317,-0.3199407,0.2780964
919,1778415720.1759539,-0.7441288,0.4867967,-0.10732334,0.4361578,-0.3381139,0.41981715
920,1778415720.1864033,-0.7441288,0.4867967,-0.10732334,0.4361578,-0.3381139,0.41981715
921,1778415720.1965332,-0.6888207,0.523872,-0.075675145,0.35613444,-0.26526824,0.7449502
922,1778415720.2066529,-0.658514,0.55259323,-0.071589544,0.25534168,-0.21395555,0.9466884
923,1778415720.2167554,-0.6349761,0.5916199,-0.060247418,0.13607024,-0.15302174,1.1119275
924,1778415720.2268612,-0.60466945,0.6159506,-0.058052167,0.020158553,-0.08475755,1.2515101
925,1778415720.2370002,-0.5822291,0.6369274,-0.055369087,-0.06719518,-0.028863383,1.3429873
926,1778415720.2472146,-0.55393475,0.6573554,-0.060918186,-0.14966199,0.04520403,1.4185818
927,1778415720.2574494,-0.5320433,0.67290515,-0.074272625,-0.20265454,0.08903361,1.4375186
928,1778415720.2676916,-0.52033526,0.6772956,-0.078663126,-0.21853705,0.10354166,1.4217888
929,1778415720.2777944,-0.5135056,0.66412413,-0.07280912,-0.22953261,0.11560625,1.393689
930,1778415720.287923,-0.5081394,0.6446108,-0.06299148,-0.24510968,0.1421789,1.4110987
931,1778415720.2980561,-0.49893156,0.62125576,-0.06286953,-0.24510968,0.1421789,1.4110987
932,1778415720.3081896,-0.47801572,0.6304636,-0.079029,-0.23609942,0.1423316,1.6960673
933,1778415720.3183057,-0.4531362,0.66455096,-0.079333894,-0.19440787,0.0926988,1.8999436
934,1778415720.328452,-0.40667006,0.71376115,-0.069638215,-0.15195273,0.047800206,2.0376937
935,1778415720.3386524,-0.35959417,0.7649227,-0.047258858,-0.13591751,0.05497787,2.065641
936,1778415720.3487854,-0.33123884,0.7839482,-0.036282603,-0.1554652,0.11301007,2.009594
937,1778415720.3589983,-0.30392018,0.7824847,-0.03195308,-0.24816401,0.23884831,1.892155
938,1778415720.3691337,-0.29428545,0.7644348,-0.039209604,-0.3184135,0.30085114,1.8646661
939,1778415720.3792682,-0.2819067,0.72193235,-0.07939488,-0.41493022,0.35918877,1.8891008
940,1778415720.3894162,-0.2552588,0.71992004,-0.10427438,-0.4538729,0.30879238,2.0288363
941,1778415720.3995285,-0.23519666,0.74327505,-0.10348164,-0.43004912,0.22907446,2.1496348
942,1778415720.4096282,-0.20690231,0.75303173,-0.09878625,-0.35903606,0.12751812,2.277153
943,1778415720.419891,-0.16525355,0.78327745,-0.07091877,-0.2932153,0.039095376,2.3645067
944,1778415720.4300518,-0.12598296,0.8208406,-0.03823394,-0.2640465,0.03772093,2.3629794
945,1778415720.4401965,-0.09372498,0.82962155,-0.023294043,-0.29443705,0.09819659,2.3144157
946,1778415720.4504921,-0.037990022,0.77638674,-0.061162103,-0.39629883,0.2096795,2.2582161
947,1778415720.4607296,-0.037990022,0.77638674,-0.061162103,-0.514654,0.29840767,2.2643247
948,1778415720.4708743,-0.008963938,0.7655325,-0.09183463,-0.58291817,0.29749137,2.3420575
949,1778415720.4809964,0.004085604,0.77815515,-0.11823861,-0.58123827,0.22036964,2.4350617
950,1778415720.4911268,0.038172957,0.7605932,-0.123604774,-0.51053065,0.11148291,2.538145
951,1778415720.5015461,0.08762706,0.7859605,-0.08939546,-0.4007276,-0.051923547,2.7068965
952,1778415720.511668,0.13183697,0.83571947,-0.049515083,-0.3213151,-0.11255192,2.7867672
953,1778415720.5217805,0.20903657,0.875173,-0.02859923,-0.31398472,-0.08735373,2.6655104
954,1778415720.5319543,0.22800112,0.8629772,-0.034941066,-0.2939789,-0.09468412,2.5992317
955,1778415720.5420551,0.22800112,0.8629772,-0.034941066,-0.2218968,-0.15424347,2.5618162
956,1778415720.5521722,0.254649,0.8346219,-0.050429773,-0.2218968,-0.15424347,2.5618162
957,1778415720.562272,0.2804432,0.8024858,-0.039148625,-0.05299256,-0.3034473,2.6821566
958,1778415720.572478,0.32245782,0.79858315,-0.022257395,-0.05299256,-0.3034473,2.6821566
959,1778415720.5825877,0.40551147,0.8506594,-0.006829667,0.010537425,-0.3303254,2.742785
960,1778415720.5927453,0.40551147,0.8506594,-0.006829667,0.010537425,-0.3303254,2.742785
961,1778415720.6029363,0.4225856,0.8740754,-0.015793605,0.02321288,-0.32559118,2.6777277
962,1778415720.613058,0.430269,0.86523336,-0.035733793,0.05467244,-0.35353827,2.567314
963,1778415720.6233044,0.4314886,0.82620674,-0.06658925,0.12492194,-0.4251622,2.466063
964,1778415720.63346,0.4484408,0.7823017,-0.06104015,0.38820487,-0.60994893,2.3432791
965,1778415720.643613,0.48606494,0.7467509,-0.03664848,0.4709771,-0.676686,2.4121542
966,1778415720.6537254,0.53490925,0.7496779,-0.013049542,0.47678033,-0.65377855,2.4952319
967,1778415720.6638718,0.58820504,0.7443117,0.013537374,0.410196,-0.5821546,2.5816693
968,1778415720.6739624,0.6354639,0.7394334,0.011464084,0.2678644,-0.45356745,2.7081184
969,1778415720.6840732,0.6607703,0.76614225,-0.0024391667,0.18875736,-0.3735441,2.7580566
970,1778415720.6941664,0.705529,0.84303695,-0.046832,0.06994407,-0.27397305,2.7104092
971,1778415720.7042859,0.705529,0.84303695,-0.046832,0.06994407,-0.27397305,2.7104092
972,1778415720.714421,0.7315671,0.84242725,-0.09848136,0.04352415,-0.27748555,2.3741279
973,1778415720.7245474,0.71626127,0.8000467,-0.11177482,0.08353582,-0.3297145,2.2782218
974,1778415720.7346659,0.70302886,0.72351784,-0.10250599,0.13881913,-0.40225476,2.264172
975,1778415720.7448668,0.70924866,0.6860156,-0.11012838,0.19333886,-0.47739118,2.3075435
976,1778415720.7549975,0.74144566,0.68497896,-0.10683551,0.27091873,-0.54534996,2.3445008
977,1778415720.765168,0.77766734,0.6826008,-0.067503944,0.267559,-0.5549711,2.3764186
978,1778415720.775291,0.8276703,0.68949145,-0.021525647,0.14584407,-0.45662177,2.399784
979,1778415720.7855647,0.8276703,0.68949145,-0.021525647,0.14584407,-0.45662177,2.399784
980,1778415720.795774,0.85700125,0.67631996,-0.002134271,-0.2968805,-0.01160644,2.385276
981,1778415720.8059843,0.85700125,0.67631996,-0.002134271,-0.2968805,-0.01160644,2.385276
982,1778415720.816252,0.85303754,0.6574774,-0.1800105,-0.3923282,0.03481932,2.2774584
983,1778415720.8263958,0.87931955,0.6325979,-0.18287653,-0.22128594,-0.16752979,2.2742512
984,1778415720.8365378,0.9226148,0.61467,-0.10464026,-0.04596761,-0.33368513,2.3150265
985,1778415720.8466551,0.95859253,0.6337565,-0.033355605,-0.05879578,-0.27214047,2.333658
986,1778415720.8569124,0.9831671,0.63674444,0.0020123124,-0.22999077,-0.061391957,2.3124304
987,1778415720.8670263,1.0051196,0.61967033,0.007378479,-0.42073345,0.14355333,2.2852468
988,1778415720.8772514,1.0114615,0.59174186,-0.061527982,-0.5983425,0.3277292,2.238363
989,1778415720.8874748,1.0033512,0.5882661,-0.11890938,-0.54825157,0.2948952,2.1852176
990,1778415720.8976202,1.0177423,0.57015526,-0.15677744,-0.39385536,0.12889257,2.1809416
991,1778415720.9077258,1.030426,0.5545445,-0.14360595,-0.17959438,-0.122020334,2.1734586
992,1778415720.9178278,1.0659769,0.56686234,-0.06793079,-0.04932737,-0.23487769,2.1574233
993,1778415720.9279554,1.0896367,0.5698503,-0.024757542,-0.10522154,-0.17302758,2.1114557
994,1778415720.9380722,1.10915,0.5742408,-0.017074168,-0.26313022,-0.04917465,2.0141754
995,1778415720.948181,1.1164676,0.5644842,-0.021891521,-0.37507126,0.046578474,1.9285016
996,1778415720.9583054,1.1221386,0.54051936,-0.04463675,-0.45188758,0.10369437,1.8584048
997,1778415720.9685411,1.1195775,0.52783567,-0.061101127,-0.47067168,0.1001819,1.7950275
998,1778415720.9786973,1.117992,0.5166155,-0.07268717,-0.41584653,0.04917465,1.7368426
999,1778415720.9888287,1.1257974,0.515152,-0.07366284,-0.34147367,-0.020005837,1.6809485
