id,timestamp,acc_x,acc_y,acc_z,gyro_x,gyro_y,gyro_z
0,1778416226.8872466,-0.47551554,0.6841862,1.3237967,0.90056807,1.7702875,1.589624
1,1778416226.8974524,-0.3679483,0.6910769,1.3744705,1.0680978,2.3012822,1.5373951
2,1778416226.9076061,-0.3679483,0.6910769,1.3744705,1.0680978,2.3012822,1.5373951
3,1778416226.9177222,-0.3679483,0.6910769,1.3744705,1.0680978,2.3012822,1.5373951
4,1778416226.9278588,-0.31459153,0.52807957,1.042012,1.1435398,2.4998133,1.5601498
5,1778416226.9379864,-0.42825672,0.5441781,1.0146323,0.9550878,1.8726074,1.772731
6,1778416226.9482305,-0.3621553,0.53875095,1.2483655,0.6302602,1.5114334,2.0044017
7,1778416226.9583755,-0.3621553,0.53875095,1.2483655,0.6302602,1.5114334,2.0044017
8,1778416226.9684968,-0.3621553,0.53875095,1.2483655,0.6302602,1.5114334,2.0044017
9,1778416226.978642,-0.24190436,0.7397383,1.4130702,-0.30100384,1.6103935,1.6137533
10,1778416226.9887693,-0.15080148,0.667417,1.3475176,-0.40408736,1.4866933,1.4555391
11,1778416226.998923,-0.0837244,0.62735367,1.331968,-0.47769663,1.2976305,1.2455542
12,1778416227.0090842,-0.0837244,0.62735367,1.331968,-0.47769663,1.2976305,1.2455542
13,1778416227.019211,-0.0837244,0.62735367,1.331968,-0.47769663,1.2976305,1.2455542
14,1778416227.0293427,0.0075004376,0.29379764,1.0281088,-0.35308012,0.9796751,0.91339624
15,1778416227.039518,-0.029818814,0.34312975,1.0464635,-0.56489766,0.42730024,1.0273226
16,1778416227.049676,0.026647896,0.3550207,0.933774,-0.7325801,0.4089743,1.1354458
17,1778416227.0597916,0.026647896,0.3550207,0.933774,-0.7325801,0.4089743,1.1354458
18,1778416227.0699155,0.026647896,0.3550207,0.933774,-0.7325801,0.4089743,1.1354458
19,1778416227.080014,0.29330978,0.39746222,0.57015526,-1.2496775,0.09101892,1.2967142
20,1778416227.0901303,0.29330978,0.39746222,0.57015526,-1.2496775,0.09101892,1.2967142
21,1778416227.100271,0.2915414,0.4446601,0.5041757,-1.2240212,0.065515295,1.0823005
22,1778416227.1103892,0.2915414,0.4446601,0.5041757,-1.2240212,0.065515295,1.0823005
23,1778416227.1205196,0.23141594,0.40081608,0.48569906,-1.2383766,-0.023823744,0.7863363
24,1778416227.1306348,0.22336671,0.29696855,0.47758886,-1.3355042,-0.05009095,0.19013181
25,1778416227.1407433,0.20031658,0.19074284,0.4997243,-1.3768903,-0.06429356,0.18432859
26,1778416227.150902,0.16811956,0.10409144,0.5188717,-1.34314,-0.008857546,0.3651447
27,1778416227.1612859,0.16811956,0.10409144,0.5188717,-1.34314,-0.008857546,0.3651447
28,1778416227.1715016,0.16811956,0.10409144,0.5188717,-1.34314,-0.008857546,0.3651447
29,1778416227.1816268,0.29861498,-0.15116736,0.1589727,-0.7330383,0.2593123,0.6983717
30,1778416227.191757,0.21885422,-0.08171208,0.25178298,0.04184427,-0.22128594,1.0742066
31,1778416227.2018816,0.33733675,-0.13750802,0.19379179,0.3184135,-0.43493605,1.193478
32,1778416227.2120433,0.33733675,-0.13750802,0.19379179,0.3184135,-0.43493605,1.193478
33,1778416227.2222044,0.33733675,-0.13750802,0.19379179,0.3184135,-0.43493605,1.193478
34,1778416227.2323306,0.44917256,-0.052076213,0.2906267,0.77457714,-0.5448918,1.2620476
35,1778416227.2424302,0.5943639,-0.062442668,0.2789797,1.3141239,-0.8940013,1.1950052
36,1778416227.2525313,0.6549163,-0.12890996,0.23245259,1.4735597,-1.0986412,1.2469287
37,1778416227.262817,0.6549163,-0.12890996,0.23245259,1.4735597,-1.0986412,1.2469287
38,1778416227.2730625,0.6549163,-0.12890996,0.23245259,1.4735597,-1.0986412,1.2469287
39,1778416227.2832913,0.8715753,-0.13055639,0.4617343,0.73991054,-1.7420349,2.0218112
40,1778416227.293397,0.8859054,-0.039758418,0.54917836,0.40775254,-1.842675,2.1056526
41,1778416227.3035476,0.7469338,0.17921777,0.8178526,-0.22388211,-1.820073,2.0007365
42,1778416227.3138046,0.7469338,0.17921777,0.8178526,-0.22388211,-1.820073,2.0007365
43,1778416227.32421,0.7469338,0.17921777,0.8178526,-0.22388211,-1.820073,2.0007365
44,1778416227.3343852,0.7469338,0.17921777,0.8178526,-0.22388211,-1.820073,2.0007365
45,1778416227.3446753,0.9990217,0.4908213,0.9799352,-1.3797919,-2.5192082,2.4199426
46,1778416227.3548303,1.1079915,0.6057671,0.9856673,-1.4871514,-3.173445,2.744312
47,1778416227.3651907,1.2390966,0.71150494,1.0317065,-1.4613423,-3.856087,3.0611985
48,1778416227.375508,1.4274613,0.813584,1.2142782,-1.2861768,-4.774828,3.4019086
49,1778416227.3856251,1.586739,0.971642,1.5760676,-0.97341377,-5.3662987,3.487277
50,1778416227.3958623,1.6489986,1.1382982,1.8394367,-0.5215262,-5.322927,3.2834008
51,1778416227.4059837,1.5996665,1.2242178,1.8804755,-0.07620544,-4.970916,2.9637654
52,1778416227.4163413,1.4449013,1.2479386,1.7359549,0.38515055,-4.504368,2.6123652
53,1778416227.4264834,1.2092168,1.1961673,1.3421515,0.8935431,-4.117537,2.2750149
54,1778416227.4366863,0.9617634,1.1634215,0.94145733,1.3264939,-4.0850086,2.0039434
55,1778416227.4468093,0.7104073,1.1342735,0.6274147,1.6859881,-4.383722,1.8579466
56,1778416227.457092,0.6641851,1.0438414,0.49435812,1.7719674,-4.9897,1.824349
57,1778416227.467318,0.5704601,1.2129366,0.6711977,1.6285667,-5.1940346,1.7938058
58,1778416227.4775503,0.53673863,1.3016003,0.8858444,1.2982414,-4.9521317,1.7386752
59,1778416227.4877048,0.3245921,1.4364862,1.2525731,0.517861,-3.5246925,1.7252362
60,1778416227.4978344,-0.19616999,1.7200394,1.4580729,-0.47601673,-0.713796,1.9779817
61,1778416227.5080054,-0.119397216,1.5519809,1.0434146,-1.0259482,1.0656544,1.74738
62,1778416227.5181382,-0.04981998,1.3850808,0.7274814,-1.396438,1.8008307,1.2652546
63,1778416227.5283053,-0.122324206,1.2601346,0.61369437,-1.4990633,2.278833,1.0296134
64,1778416227.5384176,-0.34837398,1.2478777,0.46234405,-1.258077,2.494621,0.86116725
65,1778416227.5485451,-0.32032356,1.0985397,0.39599872,-0.690125,2.5421157,0.6107125
66,1778416227.5586693,-0.33715382,0.9830452,0.3919131,-0.010842858,2.2899811,0.5180137
67,1778416227.5688407,-0.29178533,0.92572474,0.509359,0.8491027,1.9872974,0.4353942
68,1778416227.5790522,-0.18970619,0.8799294,0.56661844,1.9109392,1.8584048,0.3034473
69,1778416227.5891862,-0.058540005,0.85498893,0.59058326,2.7609582,1.805565,0.18234327
70,1778416227.5994408,0.14220342,0.9387743,0.626317,3.6007452,1.6247488,-0.03436117
71,1778416227.6095865,0.20684133,0.9904236,0.6617459,3.9892554,1.5141822,-0.18524489
72,1778416227.6197531,0.3728876,1.2158027,0.8115718,4.3954806,1.4298828,-0.39385536
73,1778416227.6298678,0.5608254,1.4080089,0.96584904,4.4350343,1.2680036,-0.47647488
74,1778416227.6399903,0.93743277,1.5533223,1.1493354,4.2520804,1.0506883,-0.44058657
75,1778416227.6500866,2.0065804,1.7536389,1.8324851,4.2336016,0.07742717,-0.3831652
76,1778416227.660191,2.3785534,1.7410163,2.0276792,4.2336016,0.07742717,-0.3831652
77,1778416227.670329,2.6676557,1.6141796,2.0906098,4.5915685,-0.09941832,-0.5093089
78,1778416227.6804338,2.6981452,1.3869712,2.0568273,5.3001723,-0.56673026,-1.3148874
79,1778416227.690579,2.672107,1.027438,1.8859026,5.1315737,-0.7298313,-1.5838208
80,1778416227.700681,2.5325258,0.75973946,1.7790672,4.55904,-0.7809912,-1.6687311
81,1778416227.7109222,2.5325258,0.75973946,1.7790672,4.55904,-0.7809912,-1.6687311
82,1778416227.721184,2.3776996,0.5637524,1.7127218,4.0813437,-0.68798697,-1.7017179
83,1778416227.7314422,1.9312103,0.12025091,1.5302722,3.200934,-0.32375857,-1.765706
84,1778416227.7416053,1.0832338,-0.5733261,1.1961673,1.7272215,0.5925393,-1.4278975
85,1778416227.751733,1.0832338,-0.5733261,1.1961673,1.7272215,0.5925393,-1.4278975
86,1778416227.76184,0.70351666,-1.1032351,0.5032001,1.1032226,1.024421,-0.28053987
87,1778416227.771978,0.32379937,-0.85279363,0.31587207,1.1433871,0.66981375,0.43799037
88,1778416227.7820969,0.251722,-0.8359024,-0.04634417,1.2311989,-0.045662176,0.7834347
89,1778416227.7923155,0.27556485,-0.87767315,-0.21501255,1.4292719,-1.1297953,1.0760391
90,1778416227.8024192,0.2561735,-0.8308411,-0.20696329,1.6476563,-1.8942931,1.2906055
91,1778416227.8125381,0.24007498,-0.7945585,-0.10348164,1.8073975,-2.410169,1.4277447
92,1778416227.82264,0.24373372,-0.8069983,-0.0032318959,1.8510745,-2.6552784,1.5712981
93,1778416227.8327432,0.23525764,-0.8149866,0.15299673,1.8510745,-2.6552784,1.5712981
94,1778416227.8428414,0.21202457,-0.8499886,0.19269417,1.5115861,-2.0563252,1.7308867
95,1778416227.8529384,0.155131,-0.91907805,0.245868,1.2247849,-1.398576,1.6614008
96,1778416227.8630888,0.08409027,-1.012864,0.124580435,0.97341377,-0.7677049,1.6317738
97,1778416227.8732219,-0.0395145,-1.1429325,-0.14269125,0.767094,-0.3733914,1.755474
98,1778416227.8835404,-0.18318142,-1.1515306,-0.38337603,0.6076582,-0.32788193,1.9077321
99,1778416227.8936443,-0.19007207,-1.2172052,-0.5522273,0.48395798,-0.6780604,2.1164954
100,1778416227.9037435,-0.14732568,-1.3122716,-0.54692215,0.37766743,-1.2707524,2.5118778
101,1778416227.91386,-0.033843435,-1.3409319,-0.4557583,0.2499966,-1.6956092,2.9811752
102,1778416227.9241068,0.04835648,-1.3369682,-0.3972183,0.14996742,-1.8493946,3.258508
103,1778416227.9342213,0.1908648,-1.2339134,-0.2329404,-0.13805555,-1.9031507,3.7187948
104,1778416227.9444084,0.34617874,-1.141713,-0.11543357,-0.5183192,-1.6308575,3.986201
105,1778416227.9545584,0.6427204,-0.9848745,-0.057625312,-0.9963212,-1.1988231,4.1040983
106,1778416227.9648979,0.78839964,-0.8216333,-0.033843435,-1.3080152,-0.88712907,4.041637
107,1778416227.9751313,1.2261691,-0.550215,-0.12860507,-1.9042196,-0.4689918,3.9832995
108,1778416227.9853625,1.5808849,-0.41301188,-0.11665315,-2.246915,-0.5213735,4.07722
109,1778416227.995495,2.652167,-0.073540874,0.19299906,-3.0825787,-0.7313584,4.9419
110,1778416228.0056283,3.5990517,0.66753894,0.406792,-3.6758816,-1.029308,5.586057
111,1778416228.0158813,4.343058,1.5943004,0.8026688,-3.811341,-1.1988231,5.3644657
112,1778416228.026006,4.720458,2.017191,1.1051865,-3.4755177,-0.9126327,4.4487786
113,1778416228.0361562,5.0833454,2.5424044,1.6600358,-2.8489227,-0.24220806,3.3899968
114,1778416228.046281,4.6838098,2.851081,1.5730796,-1.6528486,1.1498011,1.7195857
115,1778416228.0566013,4.2254295,2.7253418,1.1319562,-0.5821546,1.969735,0.22464569
116,1778416228.066874,3.489106,2.376663,0.49374834,0.57925296,2.137723,-1.2916746
117,1778416228.0772352,2.670034,1.9847499,-0.10939662,1.5244142,1.6113098,-2.4165828
118,1778416228.0874934,2.0945735,1.6614993,-0.39666948,2.0161607,0.8750645,-3.030808
119,1778416228.097619,1.6522305,1.3769706,-0.5095419,2.271808,0.119729586,-3.3476942
120,1778416228.1077855,1.1145772,1.071343,-0.4867357,2.2853997,-0.6776023,-3.4626896
121,1778416228.1179285,0.8952351,0.96920294,-0.45417285,2.1474967,-0.8927795,-3.4322991
122,1778416228.1282637,0.62424374,0.8462079,-0.4042309,1.754405,-1.1027645,-3.3050864
123,1778416228.13838,0.41209725,0.7612639,-0.30757892,1.1246029,-1.1849259,-3.154508
124,1778416228.148485,0.30428603,0.7132733,-0.2154394,0.60994893,-1.1157454,-3.1149547
125,1778416228.1587398,0.24659975,0.67839324,-0.1367153,0.25244007,-0.9728029,-3.157715
126,1778416228.169124,0.21861032,0.62735367,-0.06768687,-0.10522154,-0.7031059,-3.2968397
127,1778416228.1794007,0.21952501,0.57228947,-0.057625312,-0.35048392,-0.40882155,-3.4982727
128,1778416228.1902308,0.17470531,0.41843903,0.0086590415,-0.6226244,0.089491755,-3.8337903
129,1778416228.2003155,0.158058,0.30587152,0.031282313,-0.728915,0.37827832,-3.9472585
130,1778416228.210442,0.18123008,0.18305947,0.045063604,-0.8174904,0.6236934,-3.981467
131,1778416228.2206216,0.18123008,0.18305947,0.045063604,-0.8174904,0.6236934,-3.981467
132,1778416228.230852,0.22062263,0.11433593,0.05116152,-0.8750645,0.743423,-3.9721513
133,1778416228.2409718,0.30776188,0.015854584,0.06695513,-1.0096076,0.87796605,-3.9217548
134,1778416228.251082,0.480028,-0.027562585,0.12159246,-1.1508701,0.97402465,-3.7916405
135,1778416228.2611754,0.6553431,0.012805625,0.17220518,-1.1262828,1.0656544,-3.6987891
136,1778416228.271299,0.9209684,0.234221,0.34794715,-0.42394048,1.400714,-3.6430476
137,1778416228.2814486,0.9874967,0.2976393,0.37209487,0.078343466,1.593442,-3.7530034
138,1778416228.291574,1.0583545,0.3463007,0.38276625,0.68951416,1.7359263,-3.8556287
139,1778416228.3019125,1.0583545,0.3463007,0.38276625,0.68951416,1.7359263,-3.8556287
140,1778416228.3120623,0.9201756,0.46825904,0.37764397,1.4225525,1.9599612,-3.9629884
141,1778416228.3221617,0.8509643,0.5024074,0.3694118,1.4291192,2.0201313,-3.9445095
142,1778416228.3323867,0.8509643,0.5024074,0.3694118,1.4291192,2.0201313,-3.9445095
143,1778416228.342503,0.5894856,0.4913701,0.33062905,0.98990715,2.156507,-3.7846155
144,1778416228.3526313,0.49807784,0.31989673,0.35142294,0.6792821,2.0822868,-3.5013268
145,1778416228.3627322,0.4613074,0.0831146,0.4030723,0.4156938,2.007914,-2.887102
146,1778416228.372903,0.43258622,-0.052686002,0.46435636,0.27488935,1.9969184,-2.162463
147,1778416228.3830266,0.34709343,-0.06768687,0.51435924,0.2846632,2.1841488,-0.9326385
148,1778416228.3932264,0.24574605,-0.050185855,0.4290494,0.41309762,2.357329,-0.19960022
149,1778416228.4033377,0.17427845,-0.09476163,0.29873693,0.54382277,2.4051292,0.48075095
150,1778416228.4134736,0.079029,-0.17397358,0.11323831,0.61575216,2.2397375,1.3362677
151,1778416228.4235795,0.007622396,-0.26788148,-0.06445498,0.6072,1.9107865,2.0210476
152,1778416228.4336865,-0.020549979,-0.44075742,-0.25446606,0.5655085,1.2490667,2.8452575
153,1778416228.4438515,-0.020549979,-0.44075742,-0.25446606,0.5655085,1.2490667,2.8452575
154,1778416228.4539661,0.2625763,-0.91883403,-0.33825144,0.49281552,-0.37812558,4.784144
155,1778416228.4640934,0.5121031,-1.0471343,-0.27971146,0.52595496,-1.0377073,5.810703
156,1778416228.4742086,0.86785555,-1.0891489,-0.19891405,0.6000224,-1.4227052,6.657057
157,1778416228.4844482,1.2017165,-1.071221,-0.1156165,0.7405214,-1.4883732,7.152468
158,1778416228.4945712,1.4774643,-0.98999685,-0.084578104,0.893085,-1.3756685,7.548767
159,1778416228.504725,1.6691217,-0.86492854,-0.110860124,1.0067059,-1.2014192,7.6568904
160,1778416228.5148587,1.8272407,-0.56344754,-0.19446257,1.0067059,-1.2014192,7.6568904
161,1778416228.5249805,1.8332167,-0.41929275,-0.23184279,1.1911873,-0.8891144,6.8687215
162,1778416228.5350842,1.7849213,-0.2534904,-0.20885365,1.196685,-0.8555168,6.2997007
163,1778416228.545187,1.6553406,-0.18549863,-0.13921544,1.1771374,-0.6916522,5.5929294
164,1778416228.555438,1.4914285,-0.19251123,-0.07530928,1.0943651,-0.39095375,5.0228395
165,1778416228.56568,1.3126376,-0.16116793,-0.06756492,0.9476047,-0.064751714,4.584238
166,1778416228.5758004,1.1892157,-0.12945877,-0.10567689,0.8390234,0.15057829,4.283387
167,1778416228.5859191,1.1317123,-0.07744354,-0.20360945,0.76251256,0.24373524,3.968639
168,1778416228.59615,1.1144553,0.010122542,-0.27995536,0.71685034,0.05207626,3.643353
169,1778416228.6062608,1.1587261,0.13476396,-0.34166628,0.6215554,-0.35995236,3.3279939
170,1778416228.6165655,1.2287303,0.21952501,-0.32148215,0.4436409,-0.73532903,3.1041117
171,1778416228.6266944,1.337822,0.3204455,-0.2865411,0.17730364,-1.0813842,2.871372
172,1778416228.6369562,1.4923432,0.4105727,-0.22489117,-0.21838433,-1.430341,2.5702155
173,1778416228.6470916,1.6402177,0.41118255,-0.10823802,-0.65179324,-1.5920676,2.259896
174,1778416228.6571932,1.8331558,0.34544697,-0.006890646,-1.1665999,-1.5254833,2.0485365
175,1778416228.6673238,1.9788959,0.37374133,0.07122366,-1.7498235,-1.3220651,1.9689714
176,1778416228.6774716,2.0970128,0.5049075,0.1419595,-2.245846,-1.0937542,1.9694295
177,1778416228.6876009,2.3222697,0.7094926,0.16372907,-2.8548787,-0.8046622,1.9049833
178,1778416228.6977096,2.5892973,0.8238895,0.20098734,-3.3754885,-0.58246,1.6328428
179,1778416228.7078376,2.7629662,0.8868201,0.2865411,-3.6943603,-0.3407101,1.26556
180,1778416228.7179515,2.898584,0.9546288,0.37410718,-3.9258783,0.084910266,0.6751588
181,1778416228.7280812,2.9436474,0.9634099,0.40599927,-3.965737,0.33582318,0.29535335
182,1778416228.7381947,2.959258,0.87133133,0.44447714,-3.7739255,0.8072584,-0.45097128
183,1778416228.7483256,2.8387022,0.825597,0.43301308,-3.3791537,1.1583532,-0.9647089
184,1778416228.758629,2.6102133,0.8144378,0.3667897,-2.8776336,1.3448198,-1.3878858
185,1778416228.7691884,2.1609797,0.69424784,0.2719061,-2.4292583,1.3701707,-1.6920967
186,1778416228.7793796,2.1609797,0.69424784,0.2719061,-1.8162551,1.3629931,-2.022575
187,1778416228.789526,1.9031597,0.6177799,0.2145247,-1.1846204,1.3498595,-2.284636
188,1778416228.799656,1.6902206,0.5666794,0.15677744,-0.5910121,1.3092369,-2.4741569
189,1778416228.8097692,1.3634942,0.50972486,0.056649648,-0.09590584,1.2087497,-2.6297748
190,1778416228.8199046,1.2536707,0.49515083,0.035733793,0.14187345,1.1265882,-2.7068965
191,1778416228.8300173,0.9107849,0.46466127,0.005610083,0.39614612,0.9973902,-2.7977629
192,1778416228.8401225,0.6436351,0.43752554,0.004817354,0.48151454,0.9268353,-2.8403707
193,1778416228.850272,0.4320984,0.39532796,0.020915855,0.45142943,0.925919,-2.8081474
194,1778416228.8603702,0.28355312,0.37014353,0.05372265,0.3669773,0.9987647,-2.6861272
195,1778416228.8704717,0.11409202,0.40349916,0.0717115,0.2603813,1.268309,-2.460718
196,1778416228.880568,0.079029,0.44246486,0.056039855,0.33292156,1.3874277,-2.4269676
197,1778416228.890693,0.03561183,0.46051466,0.042929336,0.5109888,1.4515685,-2.5008824
198,1778416228.9007897,0.025306353,0.43905002,0.03969744,0.6423248,1.4592043,-2.5867088
199,1778416228.9109194,0.025306353,0.43905002,0.03969744,0.6423248,1.4592043,-2.5867088
200,1778416228.921017,0.019513333,0.3363001,0.08848077,0.7771733,1.5187637,-2.7273605
201,1778416228.931186,0.019513333,0.3363001,0.08848077,0.7771733,1.5187637,-2.7273605
202,1778416228.941309,0.07555319,0.2622714,0.11988505,0.79381937,1.6247488,-2.698039
203,1778416228.9514778,0.19287711,0.2798334,0.17622979,0.93584555,1.7809776,-2.4165828
204,1778416228.9616015,0.32142118,0.3728876,0.19708468,1.0693196,1.765706,-2.2821925
205,1778416228.9717321,0.4364889,0.509359,0.24300198,1.2098186,1.707063,-2.2713497
206,1778416228.981848,0.58320475,0.6764419,0.27062553,1.4706581,1.6345227,-2.4662156
207,1778416228.991951,0.734677,0.76559347,0.3084936,1.677436,1.4944818,-2.7033842
208,1778416229.0020483,0.9136509,0.8377318,0.37740007,1.9026926,1.3159565,-2.9984322
209,1778416229.0121484,1.0588423,0.8689531,0.4486847,2.0578523,1.1414018,-3.14336
210,1778416229.0225382,1.0588423,0.8689531,0.4486847,2.0578523,1.1414018,-3.14336
211,1778416229.032648,1.4593534,0.8963937,0.68193007,2.2522602,0.9992228,-2.9106202
212,1778416229.0427709,1.4593534,0.8963937,0.68193007,2.2522602,0.9992228,-2.9106202
213,1778416229.0529633,1.7315645,1.0642694,0.65266,2.4591908,0.6748534,-2.897181
214,1778416229.063084,1.8002269,0.90151596,0.70741934,2.3761132,0.40515637,-3.035084
215,1778416229.0733879,1.8489493,0.6258292,0.81102294,2.0825922,0.34040466,-2.9967523
216,1778416229.0834978,1.8789511,0.39484012,0.86437976,1.6694947,0.47784933,-2.6473372
217,1778416229.0935922,1.8446808,0.23019636,0.90194285,1.2852604,0.79611015,-2.2000313
218,1778416229.103909,1.7313205,0.12598296,0.889869,1.0181596,1.3127494,-1.7965547
219,1778416229.1140127,1.5259427,-0.008537084,0.7930341,0.79244494,1.8579466,-1.3921618
220,1778416229.124113,1.3878858,-0.08122425,0.7401651,0.68294734,2.1468859,-1.1152872
221,1778416229.1342797,1.3878858,-0.08122425,0.7401651,0.68294734,2.1468859,-1.1152872
222,1778416229.144409,0.7981563,-0.19184047,0.25269768,0.67073005,2.5224154,-0.12965615
223,1778416229.1545281,0.57771665,-0.23605035,-0.019086478,0.9297369,2.1919372,0.36880988
224,1778416229.164704,0.4454528,-0.28849244,-0.20995127,1.2108877,1.6730071,0.7678576
225,1778416229.1750295,0.3187381,-0.39685243,-0.35087416,1.5482379,0.8536842,1.2649492
226,1778416229.185266,0.24977067,-0.52612823,-0.4242321,1.8274034,0.02733622,1.7650951
227,1778416229.195369,0.23452587,-0.6279634,-0.41435343,2.0173824,-0.68401635,2.2514966
228,1778416229.2055209,0.27385744,-0.68193007,-0.33532444,2.1168008,-1.078788,2.6096163
229,1778416229.215653,0.32379937,-0.67979574,-0.19934091,2.198504,-1.2492194,2.9927816
230,1778416229.2257597,0.35837457,-0.67138064,-0.12171442,2.2116377,-1.1443033,3.1531336
231,1778416229.2359328,0.41630477,-0.6932112,-0.042502478,2.0966423,-0.7275405,3.2943962
232,1778416229.2461312,0.41630477,-0.6932112,-0.042502478,2.0966423,-0.7275405,3.2943962
233,1778416229.25637,0.377583,-0.73217684,-0.05768629,1.2560917,0.474795,3.216511
234,1778416229.2665339,0.2930049,-0.69473565,-0.1261659,0.6078109,1.0065532,3.100141
235,1778416229.2768302,0.18836464,-0.6344882,-0.29690757,-0.05665775,1.3055718,2.9469666
236,1778416229.2870882,0.09268834,-0.6012546,-0.51807904,-0.59773165,1.1685852,2.7808113
237,1778416229.2972465,0.06317442,-0.62241435,-0.64186674,-0.9465357,0.6035349,2.6783388
238,1778416229.3075504,0.08573671,-0.6893085,-0.6872962,-1.118647,-0.023823744,2.6949847
239,1778416229.3176634,0.16488767,-0.722908,-0.6343663,-1.2557862,-0.8492554,2.809064
240,1778416229.3278835,0.27965048,-0.71052927,-0.506432,-1.3034338,-1.2481505,2.8835895
241,1778416229.3380055,0.40740183,-0.63625664,-0.35459387,-1.2915218,-1.6052011,2.962391
242,1778416229.3481357,0.64168376,-0.5603376,-0.3228847,-1.1487321,-1.6879734,2.9743028
243,1778416229.35856,0.8879177,-0.46502712,-0.34288585,-1.0477866,-1.7440202,2.9022207
244,1778416229.36903,1.2685496,-0.21678093,-0.35843554,-0.98272943,-1.9350684,2.7252226
245,1778416229.3792071,1.7197956,0.08854175,-0.30989614,-1.0590876,-2.3098342,2.595719
246,1778416229.3897393,2.263059,0.3506302,-0.18604743,-1.6885842,-2.9538388,3.346167
247,1778416229.3998494,2.710707,0.5669233,-0.046039272,-2.0616703,-2.8973339,3.6118934
248,1778416229.409954,3.1956742,0.87700236,0.18086421,-2.0616703,-2.8973339,3.6118934
249,1778416229.4201663,3.656189,1.2026312,0.40142587,-2.3689353,-2.414445,3.648698
250,1778416229.4302888,3.8712623,1.3999597,0.43203738,-2.3545802,-2.0069978,3.510948
251,1778416229.4405746,4.0623713,1.6063132,0.36099666,-2.0297525,-1.3599387,2.9946141
252,1778416229.4506998,3.3946493,1.618692,-0.08024859,-1.513266,-0.88789266,2.1911736
253,1778416229.4608107,2.9257805,1.5446633,-0.22781818,-0.31810808,-0.6779077,0.28298333
254,1778416229.4710407,2.3386729,1.2899534,-0.36081374,0.17272215,-0.89904094,-0.49434268
255,1778416229.4812467,1.8977938,1.0781727,-0.4177073,0.4279111,-1.1128438,-0.9230174
256,1778416229.491376,1.4681954,0.83181685,-0.44039157,0.42714754,-1.2649492,-1.0320568
257,1778416229.5014908,1.1631776,0.6893695,-0.36739948,0.26740626,-1.3351988,-0.96577793
258,1778416229.5116122,0.9568851,0.64143986,-0.2787358,0.0038179078,-1.1551461,-0.86376345
259,1778416229.5220518,0.7530927,0.6047914,-0.18629137,-0.26465738,-0.88117313,-0.8023715
260,1778416229.5321662,0.7530927,0.6047914,-0.18629137,-0.26465738,-0.88117313,-0.8023715
261,1778416229.5422788,0.6232071,0.5660086,-0.12720254,-0.54137933,-0.5757405,-0.7667886
262,1778416229.5523803,0.32904357,0.4874065,-0.056588665,-0.83199847,-0.16997325,-0.70096785
263,1778416229.5625393,0.21976891,0.47380814,-0.06823569,-1.0606148,0.41493022,-0.61468315
264,1778416229.5727684,0.12915388,0.49435812,-0.06854059,-0.9633345,0.5036584,-0.64843345
265,1778416229.58287,0.08640748,0.5105176,-0.05189327,-0.8582657,0.5224425,-0.7058548
266,1778416229.593042,0.022257395,0.5578984,-0.033965394,-0.58352906,0.5448918,-0.905455
267,1778416229.60335,-0.03000175,0.5968641,-0.06415008,-0.37720928,0.50640726,-1.1217014
268,1778416229.6135976,-0.097749606,0.60857207,-0.07030898,-0.113926366,0.31429017,-1.4795157
269,1778416229.6237154,-0.10372557,0.55856913,0.019513333,0.01817324,0.18325958,-1.7832683
270,1778416229.6338499,-0.10354263,0.54741,0.053173836,0.034208454,0.19639318,-1.8800905
271,1778416229.6439624,-0.090554066,0.5407023,0.118360564,0.039858956,0.33857206,-2.1270328
272,1778416229.6540568,-0.059149794,0.5149081,0.1606801,0.008857546,0.66431594,-2.3893993
273,1778416229.6641755,-0.0026830835,0.4841746,0.16263144,-0.003970624,0.9634872,-2.517223
274,1778416229.6742806,0.10543298,0.4996633,0.13537374,0.050549097,1.3417655,-2.6224444
275,1778416229.6844065,0.2148906,0.53600687,0.08805392,0.14523321,1.6319265,-2.660929
276,1778416229.694524,0.45880726,0.6107064,0.007866313,0.30818152,1.8939877,-2.6535985
277,1778416229.7046323,0.68040556,0.731811,-0.065674566,0.46318856,1.9969184,-2.6256516
278,1778416229.7147737,1.0289015,0.97743505,-0.16915621,0.66538495,1.9402608,-2.6241243
279,1778416229.7249153,1.1965332,1.0912832,-0.21568331,0.72524977,1.8170186,-2.643214
280,1778416229.7350454,1.5289307,1.2122658,-0.2697718,0.77625704,1.4524848,-2.6552784
281,1778416229.7451673,1.9098675,1.2919656,-0.251722,0.7689266,0.9737192,-2.6192374
282,1778416229.7553203,2.2020798,1.4395962,-0.17586392,0.71761394,0.57711494,-2.6780334
283,1778416229.7655082,2.4129455,1.4940506,-0.13366634,0.6424775,0.27351493,-2.976288
284,1778416229.7756312,2.560759,1.3746535,-0.06982114,0.57726765,0.050701816,-3.2953126
285,1778416229.785742,2.6482034,1.1321392,0.061223082,0.49953505,-0.021380283,-3.6360226
286,1778416229.7958798,2.6011274,0.86517245,0.11799469,0.45112398,0.15118915,-3.8469238
287,1778416229.8059978,2.4420936,0.5625938,0.119397216,0.34437528,0.40866885,-3.8687623
288,1778416229.8161209,2.2837918,0.3901447,0.11567748,0.21303925,0.5578727,-3.7557523
289,1778416229.8262334,1.9835303,0.16519257,0.11183579,-0.106137834,0.7852673,-3.414584
290,1778416229.8363848,1.6618043,-0.012012896,0.08640748,-0.4578435,0.99112886,-2.9213104
291,1778416229.846501,1.3356878,-0.11665315,0.032318957,-0.75793105,1.1316279,-2.3087652
292,1778416229.8567317,1.045,-0.13452004,0.0038416875,-0.9819659,1.1499538,-1.6775887
293,1778416229.8668623,0.8451712,-0.15964346,0.012683666,-1.1073459,1.1255192,-1.1001683
294,1778416229.8770223,0.60668176,-0.22043969,0.010854292,-1.1800389,1.0801625,-0.5830709
295,1778416229.8871489,0.48429656,-0.32038453,-0.045002624,-1.1876748,0.98990715,-0.1965459
296,1778416229.8973103,0.37398523,-0.44276974,-0.12506826,-1.0743593,0.6722572,0.2828306
297,1778416229.9075944,0.28111395,-0.5402144,-0.12805626,-0.72387534,0.29184088,0.74113226
298,1778416229.9177065,0.21184163,-0.61759704,-0.1156165,-0.29871312,0.04841107,1.0705414
299,1778416229.9278488,0.12238518,-0.7218714,-0.1185435,0.30390546,-0.13820826,1.3884968
300,1778416229.9379468,0.07079682,-0.82035273,-0.15866779,0.7787005,-0.23716843,1.6247488
301,1778416229.9481237,0.042624436,-0.93981093,-0.17726645,1.2156218,-0.36132678,1.9614882
302,1778416229.9583735,0.015427729,-1.0207303,-0.2151345,1.382388,-0.44043383,2.298686
303,1778416229.968508,-0.045795355,-1.0193278,-0.27178416,1.3052663,-0.50503284,2.5207355
304,1778416229.978644,-0.13421515,-0.97743505,-0.32282373,1.1291844,-0.52458054,2.6253462
305,1778416229.9888668,-0.25745404,-0.9380426,-0.42081723,0.91751957,-0.5681047,2.7117836
306,1778416229.999031,-0.33599523,-0.9518238,-0.51387143,0.516792,-0.7672467,2.9136746
307,1778416230.0094466,-0.32007965,-0.974813,-0.5322872,-0.04352415,-1.0764973,3.2333097
308,1778416230.0195706,-0.26129574,-0.971825,-0.4843575,-0.5647449,-1.3316863,3.5428658
309,1778416230.0298033,-0.13445906,-0.9200537,-0.395145,-1.2066116,-1.5728253,3.9173262
310,1778416230.040026,-0.002134271,-0.8449273,-0.29196826,-1.7650951,-1.7217237,4.1966443
311,1778416230.0501587,0.1656804,-0.70095557,-0.14464259,-2.1276436,-1.6835446,4.308127
312,1778416230.0603423,0.2856874,-0.5016756,-0.11128698,-2.491872,-1.4306464,4.2581887
313,1778416230.0704625,0.39685243,-0.3497765,-0.16610725,-2.8661797,-1.2501358,4.07386
314,1778416230.080565,0.8844418,-0.1484233,-0.20659742,-3.630983,-1.2363913,3.7633882
315,1778416230.090664,1.3871541,0.023355022,-0.1501917,-3.980398,-1.3949108,3.852269
316,1778416230.1007721,2.0982933,0.34136137,-0.0005488125,-4.07386,-1.5812247,4.08791
317,1778416230.1109166,2.5656376,0.5874123,0.15622863,-3.9515345,-1.6229162,4.3288965
318,1778416230.1210425,2.5656376,0.5874123,0.15622863,-3.9515345,-1.6229162,4.3288965
319,1778416230.1311486,3.9826713,1.689123,0.5495443,-3.4510832,-1.1914927,4.268268
320,1778416230.141273,3.9826713,1.689123,0.5495443,-3.4510832,-1.1914927,4.268268
321,1778416230.1515505,4.6824074,2.1670167,0.68949145,-3.220787,-0.65377855,3.5729508
322,1778416230.1616607,5.042916,2.379834,0.74608016,-3.0411925,1.3222178,0.47235155
323,1778416230.1719668,5.042916,2.379834,0.74608016,-3.0411925,1.3222178,0.47235155
324,1778416230.1821063,3.9160821,1.8033979,0.36569205,-2.6528351,2.7606528,-2.188272
325,1778416230.1922755,3.2775695,1.496002,0.21671996,-2.0998492,2.8260152,-3.0870075
326,1778416230.2024522,2.5156348,1.1497623,0.054820273,-2.0998492,2.8260152,-3.0870075
327,1778416230.212554,1.9384667,0.8140719,-0.09573729,-1.4990633,2.6284003,-3.5446982
328,1778416230.2227147,1.9384667,0.8140719,-0.09573729,-0.70554936,2.159714,-3.7491853
329,1778416230.232894,1.2185466,0.4897237,-0.24135554,0.26282477,1.0980303,-3.332117
330,1778416230.2430565,0.95603144,0.4309398,-0.26678386,0.46792278,0.6206391,-3.051119
331,1778416230.2533262,0.95603144,0.4309398,-0.26678386,0.46792278,0.6206391,-3.051119
332,1778416230.263524,0.66046536,0.33678794,-0.16872935,0.48899764,0.17302758,-2.7301095
333,1778416230.2737265,0.55393475,0.29940772,-0.120007,0.45112398,0.23839016,-2.6868908
334,1778416230.2838545,0.4598439,0.2273913,-0.09878625,0.42943826,0.4569272,-2.6752844
335,1778416230.293971,0.38794947,0.14019111,-0.11262852,0.45158213,0.70157874,-2.660471
336,1778416230.3042452,0.32276276,0.06561358,-0.15275282,0.52473325,0.8761335,-2.607173
337,1778416230.3144426,0.272272,0.02414775,-0.18976717,0.59712076,0.9324858,-2.5502098
338,1778416230.3246453,0.21641506,0.0011586042,-0.23367217,0.6944011,0.8897252,-2.5109615
339,1778416230.3349335,0.21641506,0.0011586042,-0.23367217,0.6944011,0.8897252,-2.5109615
340,1778416230.3450983,0.20647547,-0.01396423,-0.2622714,0.75334954,0.8013025,-2.5042422
341,1778416230.355254,0.18592548,-0.0026221042,-0.18537667,0.9503536,0.38896844,-2.6977336
342,1778416230.3653822,0.15757017,-0.005366167,-0.113299295,1.0042624,0.33429602,-2.8586967
343,1778416230.3755105,0.13482493,-0.012622688,-0.085431814,1.0567969,0.36651915,-2.9594893
344,1778416230.3856494,0.1086039,-0.017927876,-0.061954834,1.0963504,0.39645153,-3.0320296
345,1778416230.3957705,0.08287069,-0.004695396,-0.052198168,1.1131492,0.42531493,-3.0712776
346,1778416230.4058852,0.052076213,0.009939604,-0.064820856,1.1088731,0.41920626,-3.1250339
347,1778416230.4160638,0.038051,0.02262327,-0.0512225,1.0945178,0.33490688,-3.1728342
348,1778416230.4261675,0.0016464376,0.06067427,-0.04256346,1.0754282,0.27229318,-3.227812
349,1778416230.4362965,-0.072870106,0.10610375,-0.042075627,0.9980011,0.17256944,-3.2662964
350,1778416230.4463909,-0.10994543,0.09683492,-0.048173543,0.8801041,0.029626964,-3.2114713
351,1778416230.456515,-0.087992944,0.02426971,-0.019635292,0.61346143,-0.30283645,-2.8629727
352,1778416230.466635,-0.051771317,-0.031221334,0.034087352,0.36209038,-0.6401868,-2.3409884
353,1778416230.4767678,-0.0031709166,-0.058418043,0.10799411,0.19608775,-0.8695667,-1.8171713
354,1778416230.4868886,0.08494398,-0.09146875,0.19153556,0.049632803,-1.0626001,-1.061073
355,1778416230.4970176,0.19586508,-0.10366459,0.2476364,-0.009773844,-1.1537718,-0.39858958
356,1778416230.5071478,0.31812832,-0.07049192,0.30776188,-0.002443461,-1.1728612,0.46883908
357,1778416230.517269,0.4309398,-0.0032928751,0.31861615,0.07803804,-1.1235338,1.340391
358,1778416230.527384,0.52307934,0.028294332,0.31270117,0.1685988,-1.0706941,1.9953914
359,1778416230.5374727,0.7077852,0.066650234,0.28794363,0.25457808,-1.0180069,2.5477662
360,1778416230.5476356,0.8884055,0.08104131,0.25361237,0.36178493,-0.9195049,3.0349312
361,1778416230.5577254,1.1393958,0.053844605,0.16726585,0.4503604,-0.84864455,3.4833064
362,1778416230.567844,1.2800137,0.042502478,0.13128816,0.45631635,-0.82451534,3.808745
363,1778416230.5779588,1.4240465,0.04664906,0.08695629,0.43997568,-0.75808376,3.9643626
364,1778416230.5880802,1.5918611,0.03225798,0.026586918,0.38515055,-0.6406449,4.1118865
365,1778416230.5983703,1.7527853,0.07695571,0.019391375,0.24877487,-0.49632803,4.219857
366,1778416230.608545,1.7801647,0.11982407,0.020976834,0.10064005,-0.30497447,4.2192464
367,1778416230.6186712,1.7772378,0.09159071,0.035733793,-0.14187345,0.0062613687,4.1670175
368,1778416230.6288347,1.6693046,0.002500146,0.027440626,-0.43585235,0.4202753,4.1265473
369,1778416230.6390893,1.5832632,-0.058905877,0.0052442085,-0.6776023,0.7099781,4.161214
370,1778416230.6492229,1.4722201,-0.13836174,-0.03469715,-0.89873546,0.91614515,4.256662
371,1778416230.6593509,1.455024,-0.1422644,-0.067199044,-1.119716,1.0778717,4.3852487
372,1778416230.6694946,1.4528286,0.037075333,-0.085309856,-1.2299771,1.1241448,4.2432227
373,1778416230.6796072,1.428681,0.1062867,-0.07250423,-1.290911,1.1510228,3.9526036
374,1778416230.6896958,1.1637874,0.15433827,-0.05427146,-1.244638,1.1976013,3.2204816
375,1778416230.6998575,1.0264013,0.14506944,-0.119397216,-1.244638,1.1976013,3.2204816
376,1778416230.7100687,0.8565744,0.117140986,-0.24361177,-0.8210029,0.86101454,2.5905268
377,1778416230.720184,0.8565744,0.117140986,-0.24361177,-0.8210029,0.86101454,2.5905268
378,1778416230.7304635,0.76681304,0.14574021,-0.35434994,-0.58276546,0.34330627,2.213012
379,1778416230.7409194,0.7136392,0.18086421,-0.37965629,-0.4821254,-0.039553523,1.9495764
380,1778416230.7511728,0.65089166,0.18970619,-0.35904533,-0.44150287,-0.68035114,1.5309811
381,1778416230.7612946,0.6402203,0.13506886,-0.14317909,-1.0267117,-1.4179709,1.061073
382,1778416230.7714193,0.7189444,0.078114316,-0.08183405,-1.4784466,-1.4372132,1.0288498
383,1778416230.7815402,0.84273213,0.04439283,-0.073845774,-1.9602666,-1.4068227,1.108415
384,1778416230.7916698,0.9938995,0.059881546,-0.05744238,-2.3461807,-1.4372132,1.2247849
385,1778416230.801827,1.2172662,0.17586392,0.0056710625,-2.798679,-1.5059355,1.3846788
386,1778416230.8119159,1.2172662,0.17586392,0.0056710625,-3.2262847,-1.5891659,1.5001323
387,1778416230.8220263,1.8316923,0.5105786,0.2037314,-3.5631769,-1.6126842,1.5377005
388,1778416230.8321855,2.2064703,0.7596785,0.36526522,-3.975511,-1.462106,1.3451253
389,1778416230.8422797,2.3733091,0.9586535,0.48405263,-4.2499423,-1.1194105,0.8761335
390,1778416230.8523967,2.3733091,0.9586535,0.48405263,-4.2499423,-1.1194105,0.8761335
391,1778416230.862501,2.4699612,1.0406095,0.5688137,-4.4669523,-0.5166393,0.044593163
392,1778416230.8726604,2.4791691,0.74510443,0.500517,-4.301713,0.73884153,-1.0294607
393,1778416230.8827627,2.4799008,0.66430706,0.31422567,-3.9866593,0.9469938,-1.0580186
394,1778416230.8928833,2.4799008,0.66430706,0.31422567,-3.9866593,0.9469938,-1.0580186
395,1778416230.9029863,2.473681,0.76967907,0.112689495,-3.1639764,0.4166101,-1.2224941
396,1778416230.9130774,2.3896518,0.8029737,0.1507405,-2.6945267,0.10644327,-1.5248724
397,1778416230.9232028,2.2583025,0.7861435,0.2087317,-2.3695462,0.062308256,-1.8781052
398,1778416230.9333074,2.0775602,0.7410189,0.23842856,-2.2592852,0.15332718,-2.068848
399,1778416230.9434242,1.7991294,0.6642461,0.24184339,-2.2527182,0.4437936,-2.3058636
400,1778416230.9535334,1.7991294,0.6642461,0.24184339,-2.2527182,0.4437936,-2.3058636
401,1778416230.9636686,1.2627566,0.51832294,0.17226616,-2.6891816,1.2687671,-2.5179865
402,1778416230.9737818,1.2627566,0.51832294,0.17226616,-2.6891816,1.2687671,-2.5179865
403,1778416230.9839182,0.9296274,0.46667355,0.062442668,-2.944676,1.7899879,-2.4205534
404,1778416230.9940326,0.8319388,0.4564291,0.022501312,-2.8373163,1.8713857,-2.4055874
405,1778416231.0042322,0.76138586,0.45197758,-0.042441502,-2.5308146,1.8504635,-2.4281893
406,1778416231.014335,0.69607717,0.47136897,-0.13421515,-2.096184,1.6345227,-2.511267
407,1778416231.0244584,0.66070926,0.45911217,-0.17879093,-1.7093537,1.3562735,-2.6122124
408,1778416231.0346055,0.6342443,0.43081784,-0.19507235,-1.341002,1.0442741,-2.7032313
409,1778416231.0447395,0.59088814,0.40648714,-0.18549863,-0.945314,0.6947065,-2.8397598
410,1778416231.054859,0.5458855,0.36313096,-0.19574313,-0.6041457,0.43951756,-3.0271428
411,1778416231.065081,0.5458855,0.36313096,-0.19574313,-0.6041457,0.43951756,-3.0271428
412,1778416231.075197,0.48728454,0.24916087,-0.17537609,-0.24281894,-0.006414085,-3.2748485
413,1778416231.085323,0.4818574,0.20434119,-0.17025384,-0.18112154,-0.11530081,-3.3527339
414,1778416231.0954442,0.5213109,0.17458336,-0.15610667,-0.15454891,-0.25305092,-3.4009922
415,1778416231.1056612,0.5570447,0.181474,-0.13342242,-0.15806139,-0.37598756,-3.4353535
416,1778416231.1157947,0.61271864,0.19604802,-0.12299499,-0.13744467,-0.48701233,-3.492011
417,1778416231.1259148,0.6694293,0.21312219,-0.091224834,-0.09850202,-0.5873469,-3.5451565
418,1778416231.1360898,0.7174199,0.23897736,-0.06238169,-0.029474247,-0.6421721,-3.6511416
419,1778416231.146258,0.7732768,0.29891986,-0.03518498,0.09697486,-0.6356053,-3.8566978
420,1778416231.156551,0.76565444,0.37740007,-0.031770147,0.2284636,-0.59666264,-4.0807323
421,1778416231.166656,0.766935,0.44069642,-0.0866514,0.35537085,-0.6432411,-4.2190933
422,1778416231.1767735,0.82565796,0.4926507,-0.16013129,0.41874814,-0.9063713,-4.161367
423,1778416231.1868906,0.90645534,0.55442256,-0.19677977,0.41630468,-1.3454307,-4.0199513
424,1778416231.1970165,0.9948142,0.6474158,-0.20647547,0.38056904,-1.6888897,-4.0054436
425,1778416231.2071443,1.0334749,0.649855,-0.18714507,0.22831088,-2.0463986,-4.0900483
426,1778416231.2173033,1.0093882,0.51655453,-0.082626775,-0.09682214,-2.2605069,-4.0908117
427,1778416231.227465,0.968898,0.3141037,0.07585809,-0.54443365,-2.171015,-3.7864482
428,1778416231.237572,0.8737705,0.20671937,0.19653587,-0.9083566,-1.907274,-3.3260086
429,1778416231.2477064,0.7322988,0.1636071,0.2833702,-1.2000448,-1.5219707,-2.7524061
430,1778416231.257821,0.6062549,0.120921694,0.3298363,-1.3814718,-1.0913107,-2.1087067
431,1778416231.2679265,0.4374036,0.08933448,0.30928633,-1.4650075,-0.5345071,-1.0818423
432,1778416231.2780397,0.2973954,0.09793254,0.19104773,-1.3878858,-0.3213151,-0.2771801
433,1778416231.2881577,0.20348747,0.053417753,0.05793021,-1.2538009,-0.42424592,0.32452217
434,1778416231.2982745,0.116836086,-0.040307228,-0.055978876,-1.0407617,-0.84131414,1.01312
435,1778416231.3084044,0.11775078,-0.17690057,-0.102384016,-0.80741113,-1.3683381,1.6059648
436,1778416231.3185885,0.14622805,-0.30660325,-0.1094576,-0.5991061,-1.8504635,2.1022928
437,1778416231.3287175,0.21556135,-0.48454046,-0.10183521,-0.5004513,-2.1789563,2.461787
438,1778416231.3390787,0.3202016,-0.6775395,-0.05780825,-0.46731192,-2.4853053,2.9236012
439,1778416231.349211,0.42685416,-0.8276703,-0.014513042,-0.5160284,-2.6236663,3.3411274
440,1778416231.35934,0.57552135,-0.9543849,0.039209604,-0.68325275,-2.69865,3.896862
441,1778416231.3696074,0.72796935,-0.94225013,0.100859545,-0.9112582,-2.6742153,4.372726
442,1778416231.3799002,0.89328384,-0.7442508,0.2215983,-1.426065,-2.2817345,4.6966376
443,1778416231.3900046,0.90737003,-0.66863656,0.26294217,-1.7275269,-1.8810068,4.648837
444,1778416231.4002447,0.9122484,-0.57997286,0.23318435,-1.9859229,-1.4585935,4.5236096
445,1778416231.410523,0.9122484,-0.57997286,0.23318435,-2.0937407,-1.2530373,4.414876
446,1778416231.4206445,0.883954,-0.500578,0.19440159,-2.0937407,-1.2530373,4.414876
447,1778416231.4307458,0.8091326,-0.39508402,0.026708877,-2.182316,-1.0584768,4.0587416
448,1778416231.4410076,0.8091326,-0.39508402,0.026708877,-2.182316,-1.0584768,4.0587416
449,1778416231.4511337,0.8242554,-0.27934557,-0.11122601,-2.0923662,-1.3799446,3.7783542
450,1778416231.461236,0.92657846,-0.008415125,-0.13122717,-2.031127,-2.3900104,2.973692
451,1778416231.471343,0.9568241,0.019940188,-0.051710334,-2.1545217,-2.7501154,2.6109908
452,1778416231.481543,1.027682,0.009390792,0.072565205,-2.3382394,-2.8733573,2.5050056
453,1778416231.4916673,1.1426886,0.07622396,0.1340322,-2.5686884,-2.8214338,2.4706445
454,1778416231.5017853,1.2928803,0.15647253,0.1188484,-2.7102563,-2.7495046,2.4648414
455,1778416231.511913,1.5050877,0.29129747,0.102688916,-2.8614454,-2.8041768,2.540894
456,1778416231.522018,1.7016847,0.47191778,0.05512517,-2.9170341,-2.957046,2.5399778
457,1778416231.5322185,1.7016847,0.47191778,0.05512517,-2.9170341,-2.957046,2.5399778
458,1778416231.5423622,1.7016847,0.47191778,0.05512517,-2.9170341,-2.957046,2.5399778
459,1778416231.5524826,2.51472,0.94298184,0.23800169,-3.4518468,-3.8539488,2.0986276
460,1778416231.562595,2.7479043,0.99139935,0.44014767,-4.158923,-3.3834298,2.0819814
461,1778416231.572753,2.8330312,1.0335358,0.56509393,-4.887686,-2.6569583,2.0572414
462,1778416231.582877,2.8166888,1.1170774,0.66967326,-5.8114667,-1.4301883,1.8823812
463,1778416231.5930078,2.8166888,1.1170774,0.66967326,-6.4823494,-0.060170226,1.559539
464,1778416231.6031256,2.748941,1.097808,0.76004434,-6.69096,1.264033,1.266171
465,1778416231.6133935,2.7169878,1.1103697,0.7027239,-6.575812,1.8965839,1.1398746
466,1778416231.623634,2.5986881,1.2037288,0.5177131,-5.819408,2.6702447,0.8727737
467,1778416231.6337483,2.5986881,1.2037288,0.5177131,-5.819408,2.6702447,0.8727737
468,1778416231.6438768,2.5191712,1.2508047,0.39904767,-5.2151093,2.8008173,0.6907359
469,1778416231.654005,2.087561,1.2628785,-0.09848136,-2.3648121,1.9540052,-0.3203988
470,1778416231.664252,1.896696,1.1940941,-0.21751268,-1.3906348,1.2718215,-0.7593055
471,1778416231.674584,1.604118,1.0440853,-0.27093044,-0.27046058,0.27412578,-1.3373368
472,1778416231.6847088,1.4621586,0.95548254,-0.25336844,0.19456059,-0.23014349,-1.6094772
473,1778416231.6948395,1.1959845,0.7720573,-0.19531627,0.47067168,-0.6020077,-1.8048013
474,1778416231.7052073,1.0288405,0.679186,-0.14988679,0.50823987,-0.68783426,-1.8774943
475,1778416231.7154121,1.0288405,0.679186,-0.14988679,0.3811799,-0.60994893,-1.8907807
476,1778416231.7255,0.840171,0.57704586,-0.122751065,0.3811799,-0.60994893,-1.8907807
477,1778416231.7356546,0.5833877,0.45045313,-0.14488651,-0.15286903,-0.1740966,-1.8150333
478,1778416231.7457755,0.5833877,0.45045313,-0.14488651,-0.15286903,-0.1740966,-1.8150333
479,1778416231.7559934,0.40740183,0.4012429,-0.22123243,-0.5510005,0.043982297,-1.7250835
480,1778416231.7661133,0.3234335,0.3963646,-0.24135554,-0.8428413,0.06001751,-1.6904168
481,1778416231.7762537,0.28977302,0.40319425,-0.24659975,-1.0300715,0.022449298,-1.703245
482,1778416231.7863722,0.2845288,0.41203624,-0.2388554,-1.2495248,-0.095753126,-1.7476854
483,1778416231.7965205,0.29349273,0.41502422,-0.20293866,-1.4173601,-0.24205536,-1.8318322
484,1778416231.8066373,0.30696914,0.40727988,-0.14354497,-1.5241088,-0.34025195,-1.8897116
485,1778416231.816885,0.31861615,0.39819396,-0.05939371,-1.6391041,-0.37827832,-1.9570595
486,1778416231.8270774,0.3272752,0.40563342,0.010061563,-1.745242,-0.31749722,-2.0563252
487,1778416231.837211,0.33672696,0.3969134,0.05195425,-1.8223637,-0.23869559,-2.1679606
488,1778416231.8474345,0.33672696,0.3969134,0.05195425,-1.8223637,-0.23869559,-2.1679606
489,1778416231.8575408,0.4050846,0.35209373,0.08793196,-1.8692477,-0.039553523,-2.3776402
490,1778416231.8678472,0.48746744,0.34959355,0.09299323,-1.8672624,-0.056352317,-2.4071145
491,1778416231.8780127,0.5579594,0.38910806,0.1343371,-1.8521434,-0.07696902,-2.4610233
492,1778416231.8881228,0.5924126,0.45155072,0.16592431,-1.8205311,-0.036193766,-2.5909848
493,1778416231.8982348,0.63509804,0.4861869,0.20739016,-1.7327193,0.06811147,-2.8524354
494,1778416231.9084523,0.6522332,0.47893035,0.22635466,-1.5926784,0.17959438,-2.993087
495,1778416231.9185681,0.6721124,0.48472342,0.20629252,-1.3833044,0.23869559,-3.072194
496,1778416231.9286983,0.7015653,0.46850294,0.15275282,-0.98899084,0.20265454,-3.164282
497,1778416231.939049,0.7838872,0.41026786,0.08713923,-0.63132924,0.039095376,-3.2171218
498,1778416231.9492795,0.7838872,0.41026786,0.08713923,-0.63132924,0.039095376,-3.2171218
499,1778416231.9593923,0.58540004,0.34282488,-0.090737,-0.2753475,-0.17516561,-3.2699616
500,1778416231.9695325,0.58540004,0.34282488,-0.090737,0.2771801,-0.9222538,-3.143207
501,1778416231.9796464,0.58564395,0.19958481,-0.076711796,0.21395555,-1.3981178,-2.7479773
502,1778416231.9897447,0.6018034,0.123299874,0.052076213,-0.100029185,-1.8651243,-1.2502885
503,1778416231.9998913,0.6452206,0.17604686,0.13287361,-0.20311269,-1.9740111,-0.20204368
504,1778416232.010348,0.6452206,0.17604686,0.13287361,-0.20311269,-1.9740111,-0.20204368
505,1778416232.0204878,0.77248406,0.18086421,0.40471873,-0.13133603,-1.4588989,1.4680619
506,1778416232.0307338,0.819499,0.16677801,0.4494165,-0.03481932,-0.75243324,2.0885482
507,1778416232.0410728,0.819499,0.16677801,0.4494165,-0.03481932,-0.75243324,2.0885482
508,1778416232.0512257,0.819499,0.16677801,0.4494165,-0.03481932,-0.75243324,2.0885482
509,1778416232.0613606,0.7839482,0.10787215,0.2051949,0.15134187,0.31902438,2.724459
510,1778416232.0714805,0.59741294,-0.14592315,-0.28434587,0.48502702,0.39553526,2.8238773
511,1778416232.081616,0.4996633,-0.3675824,-0.5175912,0.7338019,-0.22678372,2.948952
512,1778416232.0917838,0.45179462,-0.60759646,-0.6278415,0.892016,-1.1815661,3.3119586
513,1778416232.1019533,0.5057612,-0.78785086,-0.5719846,0.9016371,-1.9787452,3.7694967
514,1778416232.1120818,0.6807714,-0.94011587,-0.32947046,0.7837401,-2.664136,4.5246787
515,1778416232.122183,0.85407424,-0.97487396,-0.09012721,0.5448918,-2.7554605,5.31972
516,1778416232.132358,1.089088,-0.8857224,0.2426361,0.15149458,-2.245388,5.9521184
517,1778416232.1425562,1.1728123,-0.8094985,0.37130213,-0.15958855,-1.6995798,6.19341
518,1778416232.152714,1.1728123,-0.8094985,0.37130213,-0.15958855,-1.6995798,6.19341
519,1778416232.1628523,1.2747085,-0.65820915,0.5003341,-0.764956,-0.552833,6.356511
520,1778416232.172981,1.3205649,-0.24422157,0.3430078,-2.0622811,1.497078,5.84033
521,1778416232.1831145,1.2099487,-0.112994395,0.11494574,-2.5060747,1.8865047,5.144249
522,1778416232.1933734,1.1046985,-0.07622396,-0.07165052,-2.5955665,1.7263051,4.529413
523,1778416232.2034934,0.97798395,-0.04524654,-0.25135612,-2.2881484,0.9260717,3.830125
524,1778416232.213603,0.86566025,-0.069638215,-0.28385803,-1.5968018,-0.21533,3.2795827
525,1778416232.2237475,0.8495008,-0.12695862,-0.1905599,-0.97494096,-1.100321,3.0260737
526,1778416232.2338805,0.8859663,-0.19141361,0.0013415418,-0.4034765,-1.8790215,3.0069842
527,1778416232.2439806,0.97463006,-0.16196068,0.15988737,-0.22342396,-2.1670444,3.2275066
528,1778416232.2541275,0.97463006,-0.16196068,0.15988737,-0.22342396,-2.1670444,3.2275066
529,1778416232.264256,1.1214069,0.012683666,0.27800402,-0.33185256,-2.0832033,3.3767104
530,1778416232.2744126,1.568933,0.34904477,0.24800226,-1.3365731,-1.1997393,3.1848986
531,1778416232.2848241,1.568933,0.34904477,0.24800226,-1.3365731,-1.1997393,3.1848986
532,1778416232.2949402,2.0078,0.62040204,0.0910419,-2.6387851,-0.57650405,2.2763894
533,1778416232.3053007,2.1118915,0.7193103,0.10464026,-3.0822732,-0.43188173,2.0069978
534,1778416232.3154209,2.2376306,0.8328535,0.1501917,-3.6164749,-0.22036964,1.8290832
535,1778416232.3255334,2.3731263,0.9244442,0.1972676,-4.1480803,0.056199603,1.6427693
536,1778416232.3357658,2.3731263,0.9244442,0.1972676,-4.1480803,0.056199603,1.6427693
537,1778416232.3459027,2.3731263,0.9244442,0.1972676,-4.1480803,0.056199603,1.6427693
538,1778416232.3560295,2.3731263,0.9244442,0.1972676,-4.1480803,0.056199603,1.6427693
539,1778416232.366271,2.3731263,0.9244442,0.1972676,-4.1480803,0.056199603,1.6427693
540,1778416232.376527,2.3731263,0.9244442,0.1972676,-4.1480803,0.056199603,1.6427693
541,1778416232.3870409,2.3731263,0.9244442,0.1972676,-4.1480803,0.056199603,1.6427693
542,1778416232.397184,2.5536246,0.84321994,0.35520366,-3.5553885,1.3762794,-1.4996742
543,1778416232.407325,2.3672724,0.8374879,0.32818988,-3.0079005,1.5409076,-1.6812539
544,1778416232.41752,2.1964695,0.819499,0.2939196,-2.4251351,1.636508,-1.926669
545,1778416232.4276469,2.0559127,0.769862,0.2742843,-1.9237673,1.7061466,-2.1690297
546,1778416232.4377794,2.0559127,0.769862,0.2742843,-1.9237673,1.7061466,-2.1690297
547,1778416232.4479337,2.0559127,0.769862,0.2742843,-1.9237673,1.7061466,-2.1690297
548,1778416232.4580402,2.0559127,0.769862,0.2742843,-1.9237673,1.7061466,-2.1690297
549,1778416232.4681635,2.0559127,0.769862,0.2742843,-1.9237673,1.7061466,-2.1690297
550,1778416232.4782815,2.0559127,0.769862,0.2742843,-1.9237673,1.7061466,-2.1690297
551,1778416232.488512,0.96688575,0.45466065,-0.07530928,0.71944654,1.30435,-2.8017335
552,1778416232.49864,0.875173,0.45618513,-0.0910419,0.7287622,1.2066116,-2.7774515
553,1778416232.508811,0.8120596,0.48362577,-0.05689356,0.72341716,1.1053606,-2.7629435
554,1778416232.5189192,0.74510443,0.5183839,-0.0062808543,0.77121735,1.1375839,-2.8539624
555,1778416232.5290492,0.7197981,0.50423676,-0.00073175,0.8700248,1.2298244,-2.9721649
556,1778416232.5391695,0.69680893,0.49063838,-0.007866313,0.98944896,1.2846496,-3.078608
557,1778416232.5493116,0.69680893,0.49063838,-0.007866313,0.98944896,1.2846496,-3.078608
558,1778416232.5594227,0.69680893,0.49063838,-0.007866313,0.98944896,1.2846496,-3.078608
559,1778416232.569761,0.69680893,0.49063838,-0.007866313,0.98944896,1.2846496,-3.078608
560,1778416232.5798998,0.69680893,0.49063838,-0.007866313,0.98944896,1.2846496,-3.078608
561,1778416232.5899959,0.6769907,0.16354613,-0.025306353,1.6418531,1.3544409,-3.8657079
562,1778416232.6001523,0.6769907,0.16354613,-0.025306353,1.6418531,1.3544409,-3.8657079
563,1778416232.6104188,0.6489403,-0.020671938,-0.00219525,1.672549,1.4471397,-3.8951821
564,1778416232.620656,0.6489403,-0.020671938,-0.00219525,1.7081319,1.4676038,-3.615406
565,1778416232.6307576,0.6279025,-0.084456146,-0.00073175,1.765706,1.4178182,-3.2966871
566,1778416232.6409888,0.6279025,-0.084456146,-0.00073175,1.765706,1.4178182,-3.2966871
567,1778416232.6511195,0.6279025,-0.084456146,-0.00073175,1.765706,1.4178182,-3.2966871
568,1778416232.6612425,0.6279025,-0.084456146,-0.00073175,1.765706,1.4178182,-3.2966871
569,1778416232.6715405,0.6279025,-0.084456146,-0.00073175,1.765706,1.4178182,-3.2966871
570,1778416232.6817515,0.6279025,-0.084456146,-0.00073175,1.765706,1.4178182,-3.2966871
571,1778416232.691874,0.58143634,0.32300666,-0.005427146,2.8327348,0.35063666,-3.323565
572,1778416232.7020142,0.38862023,0.30459094,-0.045002624,3.085633,-0.49128836,-3.0176742
573,1778416232.712183,0.43984273,0.113299295,0.12281204,2.7936394,-1.391551,-2.31747
574,1778416232.722285,0.51905465,-0.0078053335,0.29983455,2.4478898,-1.6609426,-1.8078557
575,1778416232.73244,0.60924286,-0.073845774,0.6890646,1.5908458,-1.4616479,-0.65133506
576,1778416232.7425597,0.60924286,-0.073845774,0.6890646,1.5908458,-1.4616479,-0.65133506
577,1778416232.7528257,0.60924286,-0.073845774,0.6890646,1.5908458,-1.4616479,-0.65133506
578,1778416232.7631958,0.60924286,-0.073845774,0.6890646,1.5908458,-1.4616479,-0.65133506
579,1778416232.7734392,0.60924286,-0.073845774,0.6890646,1.5908458,-1.4616479,-0.65133506
580,1778416232.7837617,0.60924286,-0.073845774,0.6890646,1.5908458,-1.4616479,-0.65133506
581,1778416232.7938626,0.62217045,-0.4786255,0.35483778,0.37720928,1.7336355,2.6532931
582,1778416232.8040345,0.59058326,-0.822609,-0.11098208,0.5288566,1.4146112,3.206737
583,1778416232.8141549,0.6246706,-0.92773706,-0.25684425,0.68783426,0.9121745,3.8675406
584,1778416232.8242838,0.6945527,-0.96651983,-0.38337603,0.76083267,0.42470407,4.4290786
585,1778416232.8343956,0.8451712,-0.8911496,-0.41356072,0.6953174,-0.2078469,5.0356674
586,1778416232.8445039,0.8451712,-0.8911496,-0.41356072,0.6953174,-0.2078469,5.0356674
587,1778416232.8547301,0.8451712,-0.8911496,-0.41356072,0.6953174,-0.2078469,5.0356674
588,1778416232.8650541,0.8451712,-0.8911496,-0.41356072,0.6953174,-0.2078469,5.0356674
589,1778416232.875343,0.8451712,-0.8911496,-0.41356072,0.6953174,-0.2078469,5.0356674
590,1778416232.8856657,0.8451712,-0.8911496,-0.41356072,0.6953174,-0.2078469,5.0356674
591,1778416232.895773,1.2495241,-0.5216158,0.03164819,-1.329701,1.2432635,5.3675203
592,1778416232.9058795,1.2181809,-0.41856104,-0.12836114,-1.7663169,2.0355556,5.0341406
593,1778416232.9160066,1.2027531,-0.32825086,-0.3108108,-1.6742289,1.8167132,4.785824
594,1778416232.9261427,1.2070826,-0.20281671,-0.45850238,-1.3170254,1.052368,4.4312167
595,1778416232.9363737,1.2450726,-0.122507155,-0.49704117,-0.86758137,0.22602014,4.1366267
596,1778416232.9465823,1.2450726,-0.122507155,-0.49704117,-0.86758137,0.22602014,4.1366267
597,1778416232.9569345,1.2450726,-0.122507155,-0.49704117,-0.86758137,0.22602014,4.1366267
598,1778416232.9671807,1.2450726,-0.122507155,-0.49704117,-0.86758137,0.22602014,4.1366267
599,1778416232.9776907,1.2450726,-0.122507155,-0.49704117,-0.86758137,0.22602014,4.1366267
600,1778416232.9880538,1.2450726,-0.122507155,-0.49704117,-0.86758137,0.22602014,4.1366267
601,1778416232.9981747,1.6464374,0.30404213,0.18183987,-0.17944166,-1.1869112,2.4318545
602,1778416233.00846,1.8398634,0.45283127,0.10031073,-0.9767735,-0.72189003,2.254551
603,1778416233.0186243,2.0298135,0.5686307,0.03872177,-1.6371188,-0.5193882,2.081676
604,1778416233.0288,2.2087874,0.6552211,0.029757833,-2.228742,-0.47876564,1.8576412
605,1778416233.0389276,2.4133725,0.76297134,0.14360595,-2.7925704,-0.5169447,1.4202617
606,1778416233.0491636,2.4133725,0.76297134,0.14360595,-2.7925704,-0.5169447,1.4202617
607,1778416233.059289,2.4133725,0.76297134,0.14360595,-2.7925704,-0.5169447,1.4202617
608,1778416233.0694938,2.4133725,0.76297134,0.14360595,-2.7925704,-0.5169447,1.4202617
609,1778416233.0797036,2.4133725,0.76297134,0.14360595,-2.7925704,-0.5169447,1.4202617
610,1778416233.0898294,2.4133725,0.76297134,0.14360595,-2.7925704,-0.5169447,1.4202617
611,1778416233.0999696,2.291536,0.81657207,0.564972,-1.7628044,1.2267702,-0.9550878
612,1778416233.1102135,2.291536,0.81657207,0.564972,-1.7628044,1.2267702,-0.9550878
613,1778416233.1203735,2.0796945,0.8040713,0.33678794,-0.6973027,1.2220359,-1.6424639
614,1778416233.1305742,2.0796945,0.8040713,0.33678794,-0.6973027,1.2220359,-1.6424639
615,1778416233.1407025,1.9457842,0.7782161,0.27855286,0.029932396,0.9078985,-2.1200078
616,1778416233.1509054,1.9457842,0.7782161,0.27855286,0.029932396,0.9078985,-2.1200078
617,1778416233.1611378,1.9457842,0.7782161,0.27855286,0.029932396,0.9078985,-2.1200078
618,1778416233.1715572,1.9457842,0.7782161,0.27855286,0.029932396,0.9078985,-2.1200078
619,1778416233.1819913,1.9457842,0.7782161,0.27855286,0.029932396,0.9078985,-2.1200078
620,1778416233.1921802,1.9457842,0.7782161,0.27855286,0.029932396,0.9078985,-2.1200078
621,1778416233.2022989,0.9267614,0.40727988,0.360021,0.8749117,1.7014124,-3.1343496
622,1778416233.2124236,0.8241334,0.34721538,0.24355079,1.2618948,1.9839376,-3.300505
623,1778416233.2225263,0.7408969,0.29434645,0.11134796,1.5338826,2.0173824,-3.4072535
624,1778416233.232653,0.6749174,0.2464778,0.0078053335,1.8231273,1.9036088,-3.5387423
625,1778416233.2427874,0.6749174,0.2464778,0.0078053335,1.8231273,1.9036088,-3.5387423
626,1778416233.25301,0.6749174,0.2464778,0.0078053335,1.8231273,1.9036088,-3.5387423
627,1778416233.2632363,0.6749174,0.2464778,0.0078053335,1.8231273,1.9036088,-3.5387423
628,1778416233.2735498,0.6749174,0.2464778,0.0078053335,1.8231273,1.9036088,-3.5387423
629,1778416233.2837982,0.6749174,0.2464778,0.0078053335,1.8231273,1.9036088,-3.5387423
630,1778416233.2942019,0.6749174,0.2464778,0.0078053335,1.8231273,1.9036088,-3.5387423
631,1778416233.304489,0.44148916,-0.0746385,-0.038051,2.0089831,1.1643091,-3.922213
632,1778416233.3146396,0.4786255,-0.08976133,-0.017683959,1.9521726,1.132086,-3.7589593
633,1778416233.32481,0.5334458,-0.06488183,0.019452354,1.922393,1.1093313,-3.5752416
634,1778416233.3349507,0.5751555,0.0014025208,0.04323423,1.9259053,1.1166617,-3.4724634
635,1778416233.3451192,0.5751555,0.0014025208,0.04323423,1.9259053,1.1166617,-3.4724634
636,1778416233.355472,0.5751555,0.0014025208,0.04323423,1.9259053,1.1166617,-3.4724634
637,1778416233.3657482,0.5751555,0.0014025208,0.04323423,1.9259053,1.1166617,-3.4724634
638,1778416233.3762088,0.5751555,0.0014025208,0.04323423,1.9259053,1.1166617,-3.4724634
639,1778416233.3866563,0.5751555,0.0014025208,0.04323423,1.9259053,1.1166617,-3.4724634
640,1778416233.3969228,0.5751555,0.0014025208,0.04323423,1.9259053,1.1166617,-3.4724634
641,1778416233.407061,0.5184449,0.3167258,-0.026099084,3.2673655,0.7838928,-2.9297097
642,1778416233.4173245,0.5468002,0.45697787,-0.05963763,3.346167,0.043066,-2.2597432
643,1778416233.427554,0.70400447,0.41850004,-0.0001829375,3.4261904,-0.8002335,-1.6438384
644,1778416233.4376686,0.8244993,0.35867947,0.13159303,3.4231362,-1.3041973,-1.048703
645,1778416233.447863,0.8818197,0.38862023,0.2610518,3.2817209,-1.5829046,-0.2180789
646,1778416233.4582381,0.8818197,0.38862023,0.2610518,3.2817209,-1.5829046,-0.2180789
647,1778416233.468522,0.8818197,0.38862023,0.2610518,3.2817209,-1.5829046,-0.2180789
648,1778416233.4787645,0.8818197,0.38862023,0.2610518,3.2817209,-1.5829046,-0.2180789
649,1778416233.4890435,0.8818197,0.38862023,0.2610518,3.2817209,-1.5829046,-0.2180789
650,1778416233.4994264,0.8818197,0.38862023,0.2610518,3.2817209,-1.5829046,-0.2180789
651,1778416233.509561,0.8551108,-0.16513158,0.4911872,0.018936822,1.0334313,1.9289597
652,1778416233.5196667,0.8551108,-0.16513158,0.4911872,0.018936822,1.0334313,1.9289597
653,1778416233.5298617,0.8551108,-0.16513158,0.4911872,0.018936822,1.0334313,1.9289597
654,1778416233.5400403,0.8551108,-0.16513158,0.4911872,0.018936822,1.0334313,1.9289597
655,1778416233.550158,0.6886987,-0.6580262,0.11628727,-1.370629,1.5757269,3.2591188
656,1778416233.560316,0.76138586,-0.6211948,0.018049834,-1.4618006,0.72127914,3.853338
657,1778416233.5704181,0.8862102,-0.6574774,0.22696446,-1.3571899,0.19624045,4.080427
658,1778416233.5805583,0.8862102,-0.6574774,0.22696446,-1.225243,-0.07941248,4.21329
659,1778416233.590696,0.9253589,-0.68211293,0.34904477,-1.0989466,-0.051159963,4.3233986
660,1778416233.6010914,0.9253589,-0.68211293,0.34904477,-1.0989466,-0.051159963,4.3233986
661,1778416233.611311,0.9253589,-0.68211293,0.34904477,-1.0989466,-0.051159963,4.3233986
662,1778416233.6214697,0.9253589,-0.68211293,0.34904477,-1.0989466,-0.051159963,4.3233986
663,1778416233.6315918,1.0005461,-0.5509468,0.41026786,-0.17180584,1.3416128,4.1485386
664,1778416233.6417184,0.919017,-0.254649,-0.1759249,0.6247624,0.90392786,3.399618
665,1778416233.6518304,0.8854785,-0.22361061,-0.25721014,0.89904094,0.5224425,3.1430545
666,1778416233.661943,0.8854785,-0.22361061,-0.25721014,0.89904094,0.5224425,3.1430545
667,1778416233.6720552,0.82834107,-0.18708408,-0.29129747,1.2589933,-0.3239113,2.755155
668,1778416233.6822438,0.8082179,-0.2093415,-0.21763465,1.2305881,-0.82543164,2.637258
669,1778416233.692418,0.8082179,-0.2093415,-0.21763465,1.2305881,-0.82543164,2.637258
670,1778416233.702553,0.8082179,-0.2093415,-0.21763465,1.2305881,-0.82543164,2.637258
671,1778416233.7128875,0.8082179,-0.2093415,-0.21763465,1.2305881,-0.82543164,2.637258
672,1778416233.7230253,1.3808733,0.119946025,-0.08994427,-1.382999,-0.48808134,2.6126707
673,1778416233.7331543,1.6231436,0.23178181,-0.13092227,-1.9970711,-0.32559118,2.3730588
674,1778416233.7432747,1.8673042,0.3670336,-0.18129106,-2.5335636,-0.3022256,2.2120957
675,1778416233.7534547,2.0213985,0.4599049,-0.20964637,-2.797152,-0.40210205,2.2267566
676,1778416233.7635865,2.0213985,0.4599049,-0.20964637,-2.797152,-0.40210205,2.2267566
677,1778416233.7737033,2.0213985,0.4599049,-0.20964637,-2.797152,-0.40210205,2.2267566
678,1778416233.7839592,2.0213985,0.4599049,-0.20964637,-2.797152,-0.40210205,2.2267566
679,1778416233.794064,2.0213985,0.4599049,-0.20964637,-2.797152,-0.40210205,2.2267566
680,1778416233.8041697,3.3008022,1.326175,0.6043645,-3.6771033,-0.5844453,1.5575536
681,1778416233.814276,3.284521,1.2715377,0.5886929,-3.317762,1.188591,0.18371773
682,1778416233.824405,3.0846312,1.2815381,0.39484012,-2.9458976,2.0257819,-0.49296826
683,1778416233.8345225,2.8904736,1.2496461,0.20409729,-2.579684,2.317928,-1.0395399
684,1778416233.8446348,2.7415624,1.1851912,0.0892735,-2.272877,2.3330472,-1.4182764
685,1778416233.8548863,2.7415624,1.1851912,0.0892735,-2.272877,2.3330472,-1.4182764
686,1778416233.8652403,2.7415624,1.1851912,0.0892735,-2.272877,2.3330472,-1.4182764
687,1778416233.8755128,2.7415624,1.1851912,0.0892735,-2.272877,2.3330472,-1.4182764
688,1778416233.8857012,2.7415624,1.1851912,0.0892735,-2.272877,2.3330472,-1.4182764
689,1778416233.8958035,1.3676407,0.64503765,-0.040978,-0.5367978,1.1145236,-3.0036244
690,1778416233.9059155,1.1593969,0.54576355,-0.021586625,-0.49174652,1.1769847,-3.1409163
691,1778416233.916077,0.9613366,0.44795296,-0.014452063,-0.45066583,1.3118331,-3.2378912
692,1778416233.9262137,0.81632805,0.3793514,-0.03195308,-0.38744128,1.4332426,-3.2884402
693,1778416233.936376,0.6535747,0.30184686,-0.08244383,-0.24648413,1.5325081,-3.3228016
694,1778416233.9465966,0.6535747,0.30184686,-0.08244383,-0.24648413,1.5325081,-3.3228016
695,1778416233.9567723,0.6535747,0.30184686,-0.08244383,-0.24648413,1.5325081,-3.3228016
696,1778416233.9672356,0.6535747,0.30184686,-0.08244383,-0.24648413,1.5325081,-3.3228016
697,1778416233.9773757,0.6535747,0.30184686,-0.08244383,-0.24648413,1.5325081,-3.3228016
698,1778416233.9876294,0.16757075,0.083175585,-0.18537667,0.754724,1.006095,-3.3336444
699,1778416233.9977393,0.15061855,0.0646989,-0.1662292,0.8052731,0.9092729,-3.3257031
700,1778416234.0078833,0.16196068,0.011220166,-0.11872645,0.80649483,0.8248208,-3.2743905
701,1778416234.0180016,0.20171909,-0.045734376,-0.040734082,0.7495316,0.8240572,-3.14168
702,1778416234.0282497,0.21458568,-0.050063897,-0.012500729,0.72418076,0.8761335,-3.0471485
703,1778416234.038361,0.25403923,-0.0009146876,-0.03195308,0.73960507,0.9242391,-2.855184
704,1778416234.0484827,0.31605503,0.07311402,-0.038965687,0.83031857,0.82970774,-2.7105618
705,1778416234.0585916,0.37282664,0.12573905,-0.020489,0.9034697,0.75228053,-2.6282477
706,1778416234.0687306,0.46258798,0.27446723,0.02201348,1.0670289,0.64644814,-2.5932758
707,1778416234.078849,0.46941763,0.45045313,0.046710044,1.2942708,0.61376685,-2.771801
708,1778416234.0889835,0.49283364,0.538568,0.022257395,1.5625933,0.5193882,-3.0586023
709,1778416234.099105,0.51582277,0.5410682,0.03433127,1.7948748,0.26465738,-3.2215507
710,1778416234.1092098,0.6043645,0.42984214,0.047807667,1.8793269,0.08933904,-3.1601586
711,1778416234.11943,0.71248055,0.35325232,0.059515666,1.8897116,-0.15897769,-2.9404
712,1778416234.129537,0.7578491,0.354228,0.06421106,1.8819231,-0.3145956,-2.790127
713,1778416234.1397212,0.78474087,0.33087295,0.08567573,1.7928895,-0.67103547,-2.4972172
714,1778416234.14985,0.83504874,0.21982989,0.15232596,1.6455183,-0.91965765,-2.1755965
715,1778416234.1599965,0.8455981,0.11518965,0.24678269,1.513266,-0.97433007,-1.8941404
716,1778416234.1701162,0.81852335,0.04177073,0.32270175,1.2417363,-0.92927873,-1.297936
717,1778416234.1802645,0.7585198,-0.1515942,0.38392484,0.86086184,-0.44073927,-0.0013744468
718,1778416234.1905646,0.7585198,-0.1515942,0.38392484,0.86086184,-0.44073927,-0.0013744468
719,1778416234.2007077,0.7449825,-0.31977475,0.3811198,0.68829244,-0.056046885,0.72036284
720,1778416234.2108214,0.6426595,-0.5529591,0.21751268,0.48991394,0.3359759,1.3972015
721,1778416234.2209287,0.6485744,-0.670222,0.095615335,0.3501785,0.70738196,2.4904976
722,1778416234.2312582,0.6485744,-0.670222,0.095615335,0.3501785,0.70738196,2.4904976
723,1778416234.241376,0.81077904,-0.8449273,-0.21671996,0.38087448,0.18173242,3.8108828
724,1778416234.2516427,0.962922,-0.8149866,-0.30306646,0.4082107,-0.39950588,4.4619126
725,1778416234.2617624,1.0343287,-0.7662642,-0.27739424,0.41080686,-0.7334964,4.795445
726,1778416234.2720196,1.1525673,-0.67253923,-0.16891229,0.41080686,-0.7334964,4.795445
727,1778416234.2821453,1.2194004,-0.5782654,-0.024330689,0.3407101,-1.1128438,5.5309267
728,1778416234.29228,1.2748305,-0.49277264,0.096591,0.28160888,-0.7673995,5.7289996
729,1778416234.302397,1.302454,-0.36800927,0.11226265,0.28389964,-0.31642818,5.8103976
730,1778416234.3125324,1.3263578,-0.178547,0.0395145,0.3277292,0.28405234,5.714186
731,1778416234.322663,1.3469689,0.013720313,-0.10183521,0.43142357,0.7790059,5.364008
732,1778416234.3330336,1.3469689,0.013720313,-0.10183521,0.43142357,0.7790059,5.364008
733,1778416234.3432539,1.2915388,0.2222081,-0.41904885,0.7545713,0.9615019,4.45672
734,1778416234.353544,1.2236079,0.29465136,-0.5690576,1.0147998,0.5233588,3.807523
735,1778416234.3636744,1.1773858,0.34873986,-0.5774727,1.1281154,0.14508049,3.466813
736,1778416234.3737993,1.1132356,0.42825672,-0.57527745,1.142318,-0.2929099,3.073263
737,1778416234.384117,1.0489026,0.47374716,-0.50185853,0.9447031,-0.7069238,2.7333164
738,1778416234.3942668,1.0305479,0.46380752,-0.38008317,0.519999,-0.9868528,2.5071437
739,1778416234.4045064,1.0540249,0.48295498,-0.28202865,-0.0852157,-1.1355985,2.3649647
740,1778416234.4146373,1.1207361,0.56021565,-0.14415476,-0.7603745,-1.1572843,2.1820107
741,1778416234.424822,1.2065948,0.6544894,0.012073875,-1.3093897,-1.0325149,1.9173533
742,1778416234.434944,1.2664763,0.7297987,0.14811839,-1.9845484,-0.6721045,1.3972015
743,1778416234.445226,1.3284922,0.6869303,0.18409611,-2.4414756,-0.28023443,0.8445212
744,1778416234.4554944,1.3818489,0.5835096,0.1694611,-2.7853928,0.07727446,0.33460143
745,1778416234.4656057,1.4477674,0.34258097,0.10842097,-3.1294627,0.37583485,-0.03726278
746,1778416234.4757445,1.5242963,0.24544115,0.06543065,-3.2646165,0.37782016,0.022907447
747,1778416234.486057,1.6705854,0.3529474,0.029696856,-3.3234124,0.089949906,0.2677117
748,1778416234.4962654,1.8364487,0.57954603,0.057381395,-3.1986432,-0.36300668,0.2658791
749,1778416234.5063798,1.9340153,0.71845657,0.115006715,-3.0129402,-0.65484756,-0.034972034
750,1778416234.5165164,2.0163372,0.804925,0.25135612,-2.8550315,-0.8126035,-0.5323691
751,1778416234.526635,2.1119523,0.7880338,0.3591063,-2.826168,-0.75625116,-0.8396343
752,1778416234.536757,2.3628209,0.63887876,0.48216227,-2.8081474,-0.32589662,-1.1120802
753,1778416234.5468738,2.4709368,0.55161756,0.49685827,-2.7881417,0.13118331,-1.1899655
754,1778416234.5570056,2.5097806,0.53399456,0.4797841,-2.7673724,0.5868888,-1.2090551
755,1778416234.5671735,2.4881332,0.6250365,0.4024625,-2.7006352,1.0279335,-1.2127203
756,1778416234.5773003,2.3668454,0.7541904,0.36514327,-2.5230262,1.3368785,-1.3437508
757,1778416234.5875032,2.1947622,0.81864536,0.3357513,-2.1930063,1.6125315,-1.6281086
758,1778416234.5978212,2.040546,0.80309564,0.30428603,-1.8232801,1.7901406,-1.8726074
759,1778416234.607934,1.7916899,0.72461545,0.19775544,-1.135904,1.9888245,-2.1533
760,1778416234.6181214,1.6355222,0.6635753,0.096042186,-0.6722572,2.0152445,-2.2679899
761,1778416234.6282673,1.4655123,0.5966811,-0.03670946,-0.12904528,1.9326249,-2.371379
762,1778416234.6383781,1.3498348,0.564911,-0.14500846,0.2611449,1.7821994,-2.4440718
763,1778416234.6485114,1.2428774,0.54234874,-0.26562527,0.6568329,1.491733,-2.496148
764,1778416234.6586485,1.1201264,0.5558861,-0.34404445,0.94042706,1.1693488,-2.579073
765,1778416234.6687799,1.024328,0.5403364,-0.38301015,1.0821478,0.9586003,-2.7091873
766,1778416234.6788845,0.78791183,0.4487457,-0.4413672,1.189202,0.7360926,-2.9126055
767,1778416234.689004,0.78791183,0.4487457,-0.4413672,1.2373075,0.5560401,-3.0931163
768,1778416234.699171,0.67314905,0.363009,-0.45649004,1.1806498,0.38866302,-3.2102497
769,1778416234.7093542,0.5950957,0.30367625,-0.44368443,1.0485502,0.2771801,-3.2556064
770,1778416234.7195866,0.52112794,0.24678269,-0.39441326,0.7893906,0.19181168,-3.2739322
771,1778416234.7297876,0.5068588,0.18312044,-0.3137378,0.46105054,0.20326541,-3.2461379
772,1778416234.7399156,0.5236891,0.1583629,-0.24842913,0.1853976,0.2759584,-3.1955888
773,1778416234.750212,0.5104566,0.14293517,-0.16269243,-0.13713925,0.49113566,-3.1786373
774,1778416234.76048,0.4877114,0.11372615,-0.13323948,-0.23335053,0.6617198,-3.207959
775,1778416234.770632,0.45350206,0.07329696,-0.1358006,-0.044898596,0.88025683,-3.2792773
776,1778416234.7807906,0.45350206,0.07329696,-0.1358006,-0.044898596,0.88025683,-3.2792773
777,1778416234.7909024,0.42746398,0.016281437,-0.1445816,0.6574437,0.660498,-3.2792773
778,1778416234.8011436,0.39355955,0.034880083,-0.11634825,0.6574437,0.660498,-3.2792773
779,1778416234.8112807,0.34642264,0.0646989,-0.10079856,1.4026994,0.39828414,-3.3287575
780,1778416234.8213842,0.30020046,0.07695571,-0.09342009,1.7556267,0.26374108,-3.3728924
781,1778416234.8315346,0.23452587,0.078480184,-0.06786981,1.7556267,0.26374108,-3.3728924
782,1778416234.8416407,0.23452587,0.078480184,-0.06786981,2.0100522,0.11881329,-3.327841
783,1778416234.8518348,0.18988912,-0.011159187,-0.081773065,2.2365303,-0.13194689,-2.8533516
784,1778416234.8619967,0.18988912,-0.011159187,-0.081773065,2.2365303,-0.13194689,-2.8533516
785,1778416234.8721013,0.061223082,0.06390616,-0.11384811,2.0073032,-0.50793445,-2.0244074
786,1778416234.8822365,0.061223082,0.06390616,-0.11384811,2.0073032,-0.50793445,-2.0244074
787,1778416234.8923838,0.14848427,0.0693943,-0.01689123,1.3542882,-1.109484,-0.7328856
788,1778416234.9025044,0.22659859,0.10464026,0.081346214,1.0569496,-1.1426234,-0.11804971
789,1778416234.9126742,0.34312975,0.1387886,0.16439983,0.70829827,-1.0030408,0.60994893
790,1778416234.922826,0.49161404,0.08860273,0.23611133,0.3471242,-0.74388117,1.3370314
791,1778416234.9330552,0.6306466,0.03158721,0.27824792,-0.058337633,-0.40622538,2.0732768
792,1778416234.9431796,0.7866922,0.043661084,0.29751736,-0.38438696,-0.10277808,2.5358543
793,1778416234.9532843,0.8863932,0.052259143,0.24653877,-0.7338019,0.25503623,2.809064
794,1778416234.9635117,0.9579827,-0.008354146,0.15232596,-0.9998337,0.42546764,2.9184086
795,1778416234.9736311,0.9579827,-0.008354146,0.15232596,-0.9998337,0.42546764,2.9184086
796,1778416234.9837554,0.9840818,-0.29373667,0.06726002,-1.2861768,0.259465,3.3750305
797,1778416234.9938788,1.0043269,-0.383437,0.060918186,-1.3642148,0.08750644,3.80004
798,1778416235.004068,1.0905514,-0.42496383,0.06280854,-1.4172074,-0.037415497,4.1479278
799,1778416235.0143127,1.1967162,-0.43429363,0.056161813,-1.5234979,-0.15012014,4.5086436
800,1778416235.0244343,1.284953,-0.41441444,0.04744179,-1.6053538,-0.25809056,4.7563496
801,1778416235.034555,1.3358096,-0.37544873,0.05866196,-1.6780468,-0.33857206,4.9307513
802,1778416235.0447097,1.3545913,-0.31837222,0.08549279,-1.764637,-0.3753767,5.03185
803,1778416235.0548406,1.3721533,-0.24464841,0.15500905,-1.9083431,-0.30711251,5.059186
804,1778416235.0650253,1.3500178,-0.13378829,0.24495333,-1.9990565,-0.08353582,4.946634
805,1778416235.0751843,1.299649,-0.050856624,0.27965048,-2.0199788,0.17715092,4.772232
806,1778416235.085288,1.2169613,0.020854875,0.275138,-1.8979583,0.5514586,4.5011606
807,1778416235.0954797,1.1289073,0.040307228,0.2125734,-1.6148223,0.883922,4.2320743
808,1778416235.1055913,1.0384142,0.063967146,0.055186145,-1.2370021,1.0155635,3.9665008
809,1778416235.1157827,0.9856063,0.12561709,-0.082626775,-0.9213375,0.8895725,3.702607
810,1778416235.1259375,0.9505433,0.22440335,-0.20617057,-0.52687126,0.4531093,3.2453744
811,1778416235.1360717,0.88011235,0.28763872,-0.2748941,-0.22235495,-0.04795292,2.8243356
812,1778416235.1461928,0.8612088,0.29013887,-0.25684425,0.0580322,-0.710589,2.365423
813,1778416235.1563213,0.8631601,0.32831186,-0.18116911,0.16890424,-1.2938126,2.0305161
814,1778416235.1664681,0.87633157,0.34258097,-0.09713981,0.16218472,-1.5338826,1.8577939
815,1778416235.1766038,0.95157987,0.32916555,0.027684543,0.054519724,-1.640784,1.5980235
816,1778416235.1867476,1.050671,0.24873403,0.08713923,-0.18906279,-1.5019649,1.4074335
817,1778416235.1968796,1.196838,0.19360885,0.1039085,-0.54137933,-1.2347114,1.3306172
818,1778416235.207003,1.3716043,0.26446667,0.03524596,-0.92347556,-0.9793697,1.2968669
819,1778416235.2171926,1.6107037,0.43124464,-0.07561417,-1.3206906,-1.0001391,1.2518156
820,1778416235.2274802,1.8913908,0.6221095,-0.065674566,-1.733941,-1.2258538,1.1823297
821,1778416235.2377074,2.1179285,0.74595815,0.04317325,-2.1482604,-1.3298537,1.0615311
822,1778416235.2478948,2.3437953,0.8451103,0.2222081,-2.783102,-1.1430815,0.7829765
823,1778416235.2580204,2.4756932,0.89346683,0.34642264,-3.2850807,-0.75579304,0.45952338
824,1778416235.2681518,2.6210067,0.89060074,0.4542948,-3.7832413,0.03313944,-0.07269296
825,1778416235.2782695,2.733513,0.8271825,0.45722178,-3.854865,0.41218132,-0.30390546
826,1778416235.2884064,2.8576667,0.73431116,0.38002217,-3.69772,0.86467975,-0.6339254
827,1778416235.298652,2.9174263,0.7189444,0.2543441,-3.3095152,0.9433287,-0.91919947
828,1778416235.3090746,2.871448,0.7608371,0.21732976,-2.8617508,0.73456544,-1.258077
829,1778416235.3192732,2.55521,0.6886987,0.348313,-2.2110267,0.5871942,-1.975691
830,1778416235.3293724,2.303976,0.61156005,0.42221975,-2.2110267,0.5871942,-1.975691
831,1778416235.339647,2.303976,0.61156005,0.42221975,-2.0163136,0.8394816,-2.1876612
832,1778416235.3498473,2.0231059,0.5542397,0.4279518,-1.9123137,1.2403619,-2.3386977
833,1778416235.3599532,1.5411875,0.4608196,0.30776188,-1.7214183,1.844813,-2.518292
834,1778416235.3701973,1.5411875,0.4608196,0.30776188,-1.7214183,1.844813,-2.518292
835,1778416235.380652,1.3408709,0.44179407,0.22787915,-1.5393804,1.9474384,-2.5677722
836,1778416235.3909726,0.942372,0.3989867,0.099274084,-1.1640037,1.8826867,-2.6070201
837,1778416235.401088,0.78815573,0.40978,0.059881546,0.019547688,1.397507,-2.606104
838,1778416235.4112113,0.6846131,0.40538952,0.02774552,0.68798697,1.0838276,-2.6574166
839,1778416235.4213178,0.579607,0.386364,-0.010183521,1.1516337,0.8352055,-2.7259862
840,1778416235.43151,0.48868704,0.3561793,-0.040795065,1.616044,0.5564982,-2.8264735
841,1778416235.4416075,0.42709813,0.32160413,-0.0617719,1.9062049,0.3173445,-2.912911
842,1778416235.4517076,0.34843495,0.24946578,-0.071772486,2.0103576,0.17684549,-2.9582677
843,1778416235.461802,0.29428545,0.18812074,-0.05512517,2.0218112,0.08750644,-2.981786
844,1778416235.4719012,0.22196417,0.11067719,-0.058296088,1.9685133,0.06001751,-2.9581149
845,1778416235.482045,0.22196417,0.11067719,-0.058296088,1.9685133,0.06001751,-2.9581149
846,1778416235.4921682,0.12494631,0.0016464376,-0.01689123,1.744173,0.08659015,-2.8394544
847,1778416235.5022817,0.10787215,-0.046527103,-0.0019513334,1.6082555,0.17547104,-2.784171
848,1778416235.5124183,0.10738432,-0.09232246,0.009024917,1.4625641,0.279929,-2.7275133
849,1778416235.5225513,0.12738548,-0.11915329,0.026647896,1.2974777,0.44135013,-2.7159069
850,1778416235.5326889,0.14836231,-0.12451946,0.033416584,1.1682798,0.6072,-2.7571404
851,1778416235.5428026,0.16708292,-0.15531394,-0.0102445,1.0713049,0.77411896,-2.847701
852,1778416235.5529344,0.16689998,-0.1636071,-0.035489876,1.0708468,0.82604253,-2.9136746
853,1778416235.563057,0.14019111,-0.17982757,-0.09903017,1.144456,0.8231409,-2.9535334
854,1778416235.5731606,0.09067602,-0.2373919,-0.13500789,1.2345587,0.7128797,-2.86282
855,1778416235.5833068,0.10384752,-0.33300725,-0.18604743,1.2402092,0.46089783,-2.5121834
856,1778416235.5934567,0.1583629,-0.34867886,-0.18708408,1.106277,0.050549097,-1.9521726
857,1778416235.603579,0.24220926,-0.2277572,-0.1516552,0.87857693,-0.3930918,-1.4146112
858,1778416235.6136913,0.41173133,-0.03225798,-0.064942814,0.589485,-0.7724391,-1.1100949
859,1778416235.6238136,0.5642402,0.10817704,0.05232013,0.21303925,-0.95371336,-1.0392345
860,1778416235.6339617,0.65113556,0.088846646,0.16836348,-0.15393804,-0.9637926,-0.96959585
861,1778416235.6441872,0.70473623,0.008171208,0.2883095,-0.6079636,-0.7405214,-0.64904433
862,1778416235.6542969,0.77815515,-0.14378887,0.4027674,-0.9633345,-0.3210097,0.07467828
863,1778416235.6644342,0.87535596,-0.21001224,0.46508813,-1.128879,-0.034055736,0.7130325
864,1778416235.6745572,1.0366459,-0.13952033,0.43972078,-1.2675453,0.58093286,2.003638
865,1778416235.6847591,1.1537868,-0.050124876,0.3405077,-1.2469287,0.9007208,2.6731462
866,1778416235.6948657,1.1537868,-0.050124876,0.3405077,-1.1174252,1.044885,3.1688635
867,1778416235.7051792,1.3607501,0.12427554,-0.11903133,-0.8353582,0.7466301,3.2782083
868,1778416235.7154303,1.3564816,0.06799178,-0.24812423,-0.4908302,0.22617286,3.2189543
869,1778416235.7255511,1.3218454,-0.11238461,-0.27410138,0.020158553,-0.513585,3.2053626
870,1778416235.7356737,1.2549512,-0.28184572,-0.22763525,0.5331327,-1.0832168,3.4061847
871,1778416235.7457857,1.2361088,-0.42691517,-0.14543532,0.8697194,-1.3272575,3.7242928
872,1778416235.756073,1.2197663,-0.5705211,-0.047197875,1.0929906,-1.2896893,4.308127
873,1778416235.766358,1.2197663,-0.5705211,-0.047197875,1.0929906,-1.2896893,4.308127
874,1778416235.7766411,1.2197663,-0.5705211,-0.047197875,1.0929906,-1.2896893,4.308127
875,1778416235.7868361,1.2197663,-0.5705211,-0.047197875,1.0929906,-1.2896893,4.308127
876,1778416235.797055,1.3570304,-0.3259946,-0.08713923,0.4111123,-0.26633725,5.8960714
877,1778416235.8072433,1.4363643,-0.107750185,-0.10531103,0.3199407,-0.27550024,5.757558
878,1778416235.8175268,1.3888005,0.21501255,-0.09781059,0.3107777,-0.36132678,5.0013065
879,1778416235.8276587,1.3888005,0.21501255,-0.09781059,0.3107777,-0.36132678,5.0013065
880,1778416235.8379197,1.3888005,0.21501255,-0.09781059,0.3107777,-0.36132678,5.0013065
881,1778416235.8480964,0.90236974,0.22903776,0.15878975,0.129198,-0.33200526,3.199712
882,1778416235.858277,0.7290669,0.17061971,0.13598356,0.059864793,-0.17486018,2.9743028
883,1778416235.8685443,0.6135724,0.10970152,0.075980045,0.04596761,-0.051923547,2.837469
884,1778416235.8786614,0.57588726,0.09354204,0.049454104,0.021685716,-0.020463986,2.8182268
885,1778416235.8888988,0.6261341,0.16933915,-0.061101127,-0.15836681,-0.08093964,2.8101327
886,1778416235.8990219,0.7265058,0.33873928,-0.13842271,-0.4512767,-0.35323283,2.6670377
887,1778416235.909167,0.91596806,0.462466,-0.11897036,-0.8185594,-0.65041876,2.3889413
888,1778416235.919414,1.085795,0.53009194,-0.112201676,-1.1948525,-0.7870999,1.9532416
889,1778416235.9295413,1.3304435,0.52064013,-0.10915271,-1.5070046,-0.8567385,1.5879441
890,1778416235.9398801,1.5357603,0.44209895,-0.05646671,-1.9375118,-0.84604836,1.238682
891,1778416235.9499865,1.6879644,0.40112096,-0.020793896,-2.4007003,-0.66996646,1.0294607
892,1778416235.9602368,1.797178,0.41075566,-0.007622396,-2.7983737,-0.5025894,0.95172805
893,1778416235.9703584,1.8885249,0.46484417,0.0014635,-3.225063,-0.35185838,0.8865182
894,1778416235.9806895,2.0979884,0.5889978,0.01695221,-3.6807685,-0.20952678,0.7284568
895,1778416235.9910336,2.2962925,0.67571014,0.06768687,-4.3250785,-0.0143553335,0.23609942
896,1778416236.0012429,2.2962925,0.67571014,0.06768687,-4.3250785,-0.0143553335,0.23609942
897,1778416236.0115976,2.2962925,0.67571014,0.06768687,-4.3250785,-0.0143553335,0.23609942
898,1778416236.0217032,2.640581,0.25592956,0.16720487,-4.705953,0.8761335,-1.1389582
899,1778416236.0318341,2.654606,0.17683959,0.089822315,-3.6482399,0.93660915,-1.4199562
900,1778416236.0419571,2.6164942,0.24842913,0.05110054,-3.1111367,0.6768387,-1.428203
901,1778416236.052057,2.5612469,0.36544815,0.06274756,-2.6151142,0.36285394,-1.4947872
902,1778416236.062169,2.4989872,0.4538679,0.1364104,-2.2354615,0.1375974,-1.6151277
903,1778416236.0723062,2.3921518,0.52198166,0.2774552,-1.993406,0.13988814,-1.7863227
904,1778416236.0824316,2.3921518,0.52198166,0.2774552,-1.993406,0.13988814,-1.7863227
905,1778416236.0925589,2.2203734,0.5394217,0.40496266,-1.9822577,0.5342017,-1.990199
906,1778416236.1027951,2.2203734,0.5394217,0.40496266,-1.9822577,0.5342017,-1.990199
907,1778416236.1129012,1.56314,0.47624728,0.21373199,-1.9350684,2.2186625,-2.5120306
908,1778416236.1230278,1.3293458,0.45466065,0.070248,-1.9350684,2.2186625,-2.5120306
909,1778416236.1332543,1.1264071,0.4346595,-0.040246252,-1.0477866,2.1788037,-2.6836836
910,1778416236.143357,0.9754838,0.44051352,-0.10348164,-0.5209153,1.9249891,-2.730873
911,1778416236.1534872,0.9754838,0.44051352,-0.10348164,-0.5209153,1.9249891,-2.730873
912,1778416236.1636162,0.8305972,0.46002686,-0.13610551,0.14920384,1.5486962,-2.8312078
913,1778416236.1738026,0.6361347,0.47484478,-0.13500789,1.0202976,0.99265605,-3.0928106
914,1778416236.1839235,0.5528981,0.47246656,-0.11567748,1.1879802,0.86742866,-3.2452216
915,1778416236.1940346,0.46185625,0.43947688,-0.08793196,1.2049317,0.81061816,-3.4497087
916,1778416236.2041636,0.46185625,0.43947688,-0.08793196,1.2049317,0.81061816,-3.4497087
917,1778416236.2143636,0.46185625,0.43947688,-0.08793196,1.2049317,0.81061816,-3.4497087
918,1778416236.2246115,0.46185625,0.43947688,-0.08793196,1.2049317,0.81061816,-3.4497087
919,1778416236.2347488,0.28812656,0.20964637,-0.03286777,0.6945538,1.1293371,-3.7304013
920,1778416236.2449028,0.30520073,0.17068069,-0.015671646,0.6220135,1.0778717,-3.6784778
921,1778416236.2550383,0.30520073,0.17068069,-0.015671646,0.6220135,1.0778717,-3.6784778
922,1778416236.2651696,0.3795953,0.13567865,0.06982114,0.61422503,0.94882643,-3.520722
923,1778416236.2753012,0.40026724,0.16202165,0.0851879,0.63621616,0.91981035,-3.491553
924,1778416236.285453,0.41971964,0.18196183,0.072870106,0.70341134,0.80970186,-3.5010214
925,1778416236.295583,0.45777062,0.17122951,0.08104131,0.73884153,0.6105598,-3.4857497
926,1778416236.3057299,0.5152739,0.13659334,0.08835881,0.73945236,0.3753767,-3.411377
927,1778416236.31618,0.6390617,0.063418336,0.11897036,0.6976081,0.064446285,-3.1618385
928,1778416236.326276,0.76114196,0.039087646,0.17019285,0.6348417,-0.20647246,-2.855795
929,1778416236.3365722,0.8537083,0.07421165,0.23434295,0.5821546,-0.3182608,-2.7183504
930,1778416236.3469,0.8537083,0.07421165,0.23434295,0.5821546,-0.3182608,-2.7183504
931,1778416236.3570635,0.8537083,0.07421165,0.23434295,0.5821546,-0.3182608,-2.7183504
932,1778416236.3671925,0.8240725,-0.029818814,0.377583,0.12370021,0.24480425,-3.275765
933,1778416236.377323,0.76089805,-0.14378887,0.37270468,0.06414085,0.4804455,-3.187953
934,1778416236.3876364,0.76089805,-0.14378887,0.37270468,0.06414085,0.4804455,-3.187953
935,1778416236.3978581,0.76089805,-0.14378887,0.37270468,0.06414085,0.4804455,-3.187953
936,1778416236.4082396,0.76089805,-0.14378887,0.37270468,0.06414085,0.4804455,-3.187953
937,1778416236.4183567,0.28227258,-0.25275865,-0.21098791,0.6951646,0.3538437,0.19486602
938,1778416236.4286118,0.28593132,-0.21842737,-0.35520366,0.88086766,-0.14630222,1.1001683
939,1778416236.438845,0.35282546,-0.2040363,-0.42703712,0.96761054,-0.73746705,1.9927951
940,1778416236.4489741,0.35282546,-0.2040363,-0.42703712,0.96761054,-0.73746705,1.9927951
941,1778416236.4591098,0.5686307,-0.1501917,-0.47197875,0.93279123,-1.6462818,3.176194
942,1778416236.4695632,0.66229475,-0.15458219,-0.45722178,0.8242099,-1.9953914,3.4362698
943,1778416236.479689,0.7052851,-0.21501255,-0.41374367,0.6595817,-2.140319,3.5575266
944,1778416236.489803,0.7777893,-0.368802,-0.28026026,0.3827071,-2.113441,3.7635407
945,1778416236.5000064,0.7777893,-0.368802,-0.28026026,0.3827071,-2.113441,3.7635407
946,1778416236.5101223,0.7777893,-0.368802,-0.28026026,0.3827071,-2.113441,3.7635407
947,1778416236.5202453,1.0751237,-0.5277747,0.06488183,-1.7550159,-0.59498274,5.1477613
948,1778416236.5303447,1.1866546,-0.34672755,-0.034819108,-2.6719246,0.27855456,5.5069504
949,1778416236.5404792,1.1866546,-0.34672755,-0.034819108,-2.6719246,0.27855456,5.5069504
950,1778416236.550594,1.1866546,-0.34672755,-0.034819108,-2.6719246,0.27855456,5.5069504
951,1778416236.5607157,1.1866546,-0.34672755,-0.034819108,-2.6719246,0.27855456,5.5069504
952,1778416236.5708363,1.1518356,0.17812014,-0.09768862,-1.3358096,-1.6143641,3.9955168
953,1778416236.5809455,1.1015887,0.18141302,0.06250364,-1.1195632,-1.9834795,3.5181258
954,1778416236.591065,1.1015887,0.18141302,0.06250364,-1.1195632,-1.9834795,3.5181258
955,1778416236.6011715,0.8616966,0.19769447,0.31434762,-1.0943651,-1.9656117,3.2291863
956,1778416236.611317,0.8616966,0.19769447,0.31434762,-1.1870639,-1.7311921,2.9159653
957,1778416236.6214597,0.6964431,0.18659624,0.31014004,-1.3355042,-1.2530373,2.4825563
958,1778416236.6315825,0.7061388,0.24891695,0.2815408,-1.4393512,-1.0341948,2.2795963
959,1778416236.6417046,0.78352135,0.31404272,0.22537899,-1.6401732,-0.8257371,1.9650007
960,1778416236.6518261,0.9098702,0.2646496,0.18287653,-1.9624046,-0.5731443,1.623527
961,1778416236.66193,1.0366459,0.18842563,0.12890996,-2.2869267,-0.4111123,1.4569136
962,1778416236.672069,1.1248827,0.15263085,0.056283772,-2.5784621,-0.3275765,1.3632985
963,1778416236.6822278,1.1248827,0.15263085,0.056283772,-2.5784621,-0.3275765,1.3632985
964,1778416236.6923306,1.3498958,0.10183521,-0.13250773,-2.888629,-0.8721629,1.2395983
965,1778416236.7024462,1.3498958,0.10183521,-0.13250773,-2.888629,-0.8721629,1.2395983
966,1778416236.7126443,1.5786287,0.120738745,-0.10866488,-2.8951957,-1.4341589,1.2744176
967,1778416236.7227693,1.9626755,0.31806734,0.25013652,-3.1685581,-1.9307923,1.284955
968,1778416236.733094,2.1112208,0.39032766,0.38240036,-3.348916,-1.6730071,1.1672108
969,1778416236.7434008,2.259949,0.447892,0.45935607,-3.5227072,-1.1933253,0.9763154
970,1778416236.753493,2.4578874,0.39758417,0.49051642,-3.4839172,-0.7134906,0.8164214
971,1778416236.7635963,2.6497276,0.31068885,0.48838213,-3.223994,-0.38331795,0.7799222
972,1778416236.7737048,2.7947361,0.29050475,0.45100194,-2.673299,-0.099265605,0.8483391
973,1778416236.7838447,2.7947361,0.29050475,0.45100194,-2.673299,-0.099265605,0.8483391
974,1778416236.7939634,2.880351,0.6220485,0.2900779,-1.4784466,-0.1563815,0.75426584
975,1778416236.8041098,2.7892482,0.793278,0.31617698,-0.9486737,-0.2678644,0.42577308
976,1778416236.8142297,2.6445446,0.87444127,0.3901447,-0.64858615,-0.19486602,0.066737026
977,1778416236.8244612,2.28928,0.887064,0.48234522,-0.39080104,0.3173445,-0.538325
978,1778416236.8345766,2.007739,0.8214504,0.45124584,-0.279929,0.79779,-0.90087354
979,1778416236.8447182,1.6633897,0.71717596,0.35245958,-0.12385293,1.302212,-1.2321151
980,1778416236.8548717,1.4277052,0.62802446,0.25806385,0.13087788,1.6276505,-1.420109
981,1778416236.8651989,1.1817153,0.5509468,0.13147108,0.38453966,1.7238617,-1.4689782
982,1778416236.8753493,0.9768863,0.5479588,0.02426971,0.7415904,1.6568192,-1.5070046
983,1778416236.885493,0.86492854,0.5683868,-0.047868647,1.1180362,1.4569136,-1.6003143
984,1778416236.8956225,0.77547204,0.6014985,-0.10756725,1.3800973,1.2383766,-1.7098118
985,1778416236.9058688,0.69607717,0.6361347,-0.115250625,1.591304,0.9815077,-1.9043725
986,1778416236.9159906,0.6225363,0.646928,-0.10677453,1.6424639,0.83276206,-2.160783
987,1778416236.9261148,0.5864976,0.61924344,-0.09287128,1.5758796,0.77396625,-2.3608415
988,1778416236.9362373,0.55576414,0.5749116,-0.07012604,1.4172074,0.77839506,-2.58564
989,1778416236.94648,0.53442144,0.5335677,-0.04256346,1.2631166,0.82253003,-2.7369816
990,1778416236.9567547,0.5281406,0.47612533,-0.009573729,0.9963212,0.95188075,-2.9213104
991,1778416236.9669428,0.5392388,0.4346595,-0.010854292,0.81245077,1.0456486,-3.0514245
992,1778416236.9771454,0.54844666,0.41807315,-0.017562,0.65500027,1.082606,-3.1746666
993,1778416236.98728,0.5848512,0.3995355,-0.028782167,0.53221637,1.0410671,-3.2884402
994,1778416236.9974766,0.6171092,0.40002334,-0.014330104,0.43600506,0.88239485,-3.4773505
995,1778416237.0076008,0.6436351,0.4078287,0.015671646,0.44868052,0.72173727,-3.6882517
996,1778416237.017892,0.67455155,0.39618164,0.06378421,0.47418416,0.5925393,-3.8623483
997,1778416237.0279932,0.6968699,0.36660674,0.13781293,0.49586987,0.54534996,-4.0975313
998,1778416237.0383322,0.7222373,0.27647954,0.1806203,0.5174029,0.6053675,-4.2788057
999,1778416237.0485556,0.73168904,0.19988972,0.15866779,0.600786,0.6713409,-4.350582
